trials.thisRepN,trials.thisTrialN,trials.thisN,trials.thisIndex,thisRow.t,notes,trial.started,trial.stopped,wait.started,wait.stopped,triggerrrs.started,thermode_locali_pic.started,percu_or.started,responser.started,thermode_locali_pic.stopped,percu_or.stopped,responser.stopped,triggerrrs.stopped,dur_plateau1,dur_plateau2,dur_plateau1_sent,dur_plateau2_sent,start_plateau_2_resp,start_detect_cue,dur_pic,dur_rise,temp_plateau_sent,loca_thermode,pic_sent,quest_intens,pic_response,discrimin_resp.keys,discrimin_resp.rt,discrimin_resp.duration,Cali_fin.started,text.started,text.stopped,Cali_fin.stopped,mean_6_reversals,pic_a_utiliser,threshold,participant,com_thermode,temp_plateau,date,expName,psychopyVersion,frameRate,expStart,
0,0,0,0,61.40357920000315,,0.0029796000017086044,61.387417600002664,61.38779989999966,66.38711030000195,66.3871175000022,66.40358540000307,74.38701710000169,74.38701710000169,76.60375710000153,77.38704400000279,77.38704400000279,77.37054740000167,3.75,5.05,375,505,8,3,1.2,0.75,410,0,418,0.8,None,None,,,,,,,,,,sub-051,COM7,41.0,2025-03-05_14h30.19.504,2024_RDpaindiscrimination_QUEST,2023.2.3,59.9786476016441,2025-03-05 14h30.32.095028 -0500,
1,0,1,0,77.38704400000279,,,,77.37162110000281,82.37059040000167,82.37059670000235,82.38709550000203,90.37060460000066,90.37060460000066,92.5872597000016,93.37057930000083,93.37057930000083,93.35405560000072,3.35,5.45,335,545,8,3,1.2,0.75,410,1,418,0.8,0,m,0.6187663999990036,None,,,,,,,,sub-051,COM7,41.0,2025-03-05_14h30.19.504,2024_RDpaindiscrimination_QUEST,2023.2.3,59.9786476016441,2025-03-05 14h30.32.095028 -0500,
2,0,2,0,93.37057930000083,,,,93.35503450000033,98.35408010000174,98.35408610000013,98.37063860000126,106.35415510000166,106.35415510000166,108.57078209999963,109.35404280000148,109.35404280000148,109.33754920000138,3.25,5.55,325,555,8,3,1.2,0.75,410,2,420,1,0,m,0.6828062999993563,None,,,,,,,,sub-051,COM7,41.0,2025-03-05_14h30.19.504,2024_RDpaindiscrimination_QUEST,2023.2.3,59.9786476016441,2025-03-05 14h30.32.095028 -0500,
3,0,3,0,109.35404280000148,,,,109.33850080000047,114.3376468000024,114.33765310000308,114.35415110000031,122.33759800000189,122.33759800000189,124.55423300000257,125.33753179999985,125.33753179999985,125.32108739999967,4.07,4.73,407,473,8,3,1.2,0.75,410,3,420,1,1,n,0.6718918000005942,None,,,,,,,,sub-051,COM7,41.0,2025-03-05_14h30.19.504,2024_RDpaindiscrimination_QUEST,2023.2.3,59.9786476016441,2025-03-05 14h30.32.095028 -0500,
4,0,4,0,125.33753179999985,,,,125.3220567999997,130.32121320000078,130.3212201000024,130.33770379999987,138.32108350000271,138.32108350000271,140.53785380000045,141.3211177000012,141.3211177000012,141.30462810000245,3.54,5.26,354,526,8,3,1.2,0.75,410,0,417,0.7,0,m,1.2410197000026528,None,,,,,,,,sub-051,COM7,41.0,2025-03-05_14h30.19.504,2024_RDpaindiscrimination_QUEST,2023.2.3,59.9786476016441,2025-03-05 14h30.32.095028 -0500,
5,0,5,0,141.3211177000012,,,,141.30557469999985,146.30465800000093,146.30466450000313,146.32116880000103,154.30458,154.30458,156.52127830000245,157.30460959999982,157.30460959999982,157.28812390000166,4.44,4.36,444,436,8,3,1.2,0.75,410,1,419,0.8999999999999999,1,n,0.7096359999995911,None,,,,,,,,sub-051,COM7,41.0,2025-03-05_14h30.19.504,2024_RDpaindiscrimination_QUEST,2023.2.3,59.9786476016441,2025-03-05 14h30.32.095028 -0500,
6,0,6,0,157.30460959999982,,,,157.28907620000246,162.28817020000133,162.28817600000184,162.30470129999958,170.28810309999972,170.28810309999972,172.50476900000285,173.288034600002,173.288034600002,173.2716214000029,4.07,4.73,407,473,8,3,1.2,0.75,410,2,419,0.8999999999999999,1,n,0.5741716000011365,None,,,,,,,,sub-051,COM7,41.0,2025-03-05_14h30.19.504,2024_RDpaindiscrimination_QUEST,2023.2.3,59.9786476016441,2025-03-05 14h30.32.095028 -0500,
7,0,7,0,173.288034600002,,,,173.2725900000005,178.27166209999996,178.27166829999987,178.2881750000015,186.27157030000308,186.27157030000308,188.4882785000009,189.2716692000031,189.2716692000031,189.2551768000012,3.79,5.01,379,501,8,3,1.2,0.75,410,3,418,0.7999999999999999,1,n,0.45008899999811547,None,,,,,,,,sub-051,COM7,41.0,2025-03-05_14h30.19.504,2024_RDpaindiscrimination_QUEST,2023.2.3,59.9786476016441,2025-03-05 14h30.32.095028 -0500,
8,0,8,0,189.2716692000031,,,,189.2561435000025,194.25523180000164,194.25523780000003,194.27166330000182,202.25509140000213,202.25509140000213,204.47177940000256,205.25511540000298,205.25511540000298,205.23858490000202,4.2,4.6,420,459,8,3,1.2,0.75,410,0,418,0.7999999999999999,1,n,1.0388648000007379,None,,,,,,,,sub-051,COM7,41.0,2025-03-05_14h30.19.504,2024_RDpaindiscrimination_QUEST,2023.2.3,59.9786476016441,2025-03-05 14h30.32.095028 -0500,
9,0,9,0,205.25511540000298,,,,205.23952940000163,210.23880780000036,210.2388142000018,210.25520680000045,218.2386609000023,218.2386609000023,220.45531090000077,221.2386374000016,221.2386374000016,221.22212910000235,4.31,4.49,430,449,8,3,1.2,0.75,410,1,417,0.7,1,n,0.7189969999999448,None,,,,,,,,sub-051,COM7,41.0,2025-03-05_14h30.19.504,2024_RDpaindiscrimination_QUEST,2023.2.3,59.9786476016441,2025-03-05 14h30.32.095028 -0500,
10,0,10,0,221.2386374000016,,,,221.22307580000052,226.22221329999957,226.22222049999982,226.23866420000195,234.2221215999998,234.2221215999998,236.43879809999999,237.2221540999999,237.2221540999999,237.20566060000056,3.71,5.09,371,509,8,3,1.2,0.75,410,2,417,0.7,1,n,0.7636793000019679,None,,,,,,,,sub-051,COM7,41.0,2025-03-05_14h30.19.504,2024_RDpaindiscrimination_QUEST,2023.2.3,59.9786476016441,2025-03-05 14h30.32.095028 -0500,
11,0,11,0,237.2221540999999,,,,237.206560300001,242.20569690000048,242.2057034999998,242.22219980000227,250.2056188000024,250.2056188000024,252.42234600000302,253.20562390000123,253.20562390000123,253.18916660000104,3.36,5.44,336,544,8,3,1.2,0.75,410,3,416,0.6,1,n,1.2678319999977248,None,,,,,,,,sub-051,COM7,41.0,2025-03-05_14h30.19.504,2024_RDpaindiscrimination_QUEST,2023.2.3,59.9786476016441,2025-03-05 14h30.32.095028 -0500,
12,0,12,0,253.20562390000123,,,,253.19060270000045,258.1891848000014,258.1891907999998,258.20572110000285,266.2057915000005,266.2057915000005,268.40581590000147,269.2058348000028,269.2058348000028,269.1893493000025,3.45,5.35,345,535,8,3,1.2,0.75,410,0,416,0.6,0,m,0.36428149999846937,None,,,,,,,,sub-051,COM7,41.0,2025-03-05_14h30.19.504,2024_RDpaindiscrimination_QUEST,2023.2.3,59.9786476016441,2025-03-05 14h30.32.095028 -0500,
13,0,13,0,269.2058348000028,,,,269.1903039000026,274.1893560000026,274.1893627000027,274.20584860000235,282.18930850000106,282.18930850000106,284.4059874000013,285.18933310000284,285.18933310000284,285.172856600002,3.84,4.96,384,496,8,3,1.2,0.75,410,1,417,0.7,1,n,0.6086992000018654,None,,,,,,,,sub-051,COM7,41.0,2025-03-05_14h30.19.504,2024_RDpaindiscrimination_QUEST,2023.2.3,59.9786476016441,2025-03-05 14h30.32.095028 -0500,
14,0,14,0,285.18933310000284,,,,285.17381170000226,290.1728957000014,290.17290210000283,290.18939390000014,298.1728011000014,298.1728011000014,300.3895474000019,301.17284310000105,301.17284310000105,301.15631159999975,4.39,4.41,438,441,8,3,1.2,0.75,410,2,417,0.7,0,m,0.6773203999982798,None,,,,,,,,sub-051,COM7,41.0,2025-03-05_14h30.19.504,2024_RDpaindiscrimination_QUEST,2023.2.3,59.9786476016441,2025-03-05 14h30.32.095028 -0500,
15,0,15,0,301.17284310000105,,,,301.15726220000215,306.15636710000035,306.15637330000027,306.1728992000026,314.15632590000314,314.15632590000314,316.3730343999996,317.15639060000103,317.15639060000103,317.1398638000028,3.28,5.52,328,552,8,3,1.2,0.75,410,3,418,0.7999999999999999,0,m,0.39787640000213287,None,,,,,,,,sub-051,COM7,41.0,2025-03-05_14h30.19.504,2024_RDpaindiscrimination_QUEST,2023.2.3,59.9786476016441,2025-03-05 14h30.32.095028 -0500,
16,0,16,0,317.15639060000103,,,,317.14082430000053,322.1398623000023,322.1398685000022,322.1563771000001,330.1398343000001,330.1398343000001,332.35652350000237,333.1398635000005,333.1398635000005,333.12328230000276,4.47,4.33,447,433,8,3,1.2,0.75,410,0,419,0.8999999999999999,1,n,0.5781451000002562,None,,,,,,,,sub-051,COM7,41.0,2025-03-05_14h30.19.504,2024_RDpaindiscrimination_QUEST,2023.2.3,59.9786476016441,2025-03-05 14h30.32.095028 -0500,
17,0,17,0,333.1398635000005,,,,333.1241972000025,338.1233998000025,338.1234058000009,338.1398939000028,346.1233514000014,346.1233514000014,348.34003850000227,349.12337470000057,349.12337470000057,349.1068860000014,4.52,4.28,451,428,8,3,1.2,0.75,410,1,419,0.8999999999999999,1,n,0.41047679999974207,None,,,,,,,,sub-051,COM7,41.0,2025-03-05_14h30.19.504,2024_RDpaindiscrimination_QUEST,2023.2.3,59.9786476016441,2025-03-05 14h30.32.095028 -0500,
18,0,18,0,349.12337470000057,,,,349.10781970000244,354.106941500002,354.1069478999998,354.1234273000009,362.10684700000274,362.10684700000274,364.32353610000064,365.106884300003,365.106884300003,365.0903900000012,4.1,4.7,409,470,8,3,1.2,0.75,410,2,418,0.7999999999999999,1,n,0.36726849999831757,None,,,,,,,,sub-051,COM7,41.0,2025-03-05_14h30.19.504,2024_RDpaindiscrimination_QUEST,2023.2.3,59.9786476016441,2025-03-05 14h30.32.095028 -0500,
19,0,19,0,365.106884300003,,,,365.09130030000233,370.09052860000156,370.09053440000207,370.1069048999998,378.09036390000256,378.09036390000256,380.30702230000315,381.09039770000163,381.09039770000163,381.07390470000246,3.33,5.47,333,547,8,3,1.2,0.75,410,3,418,0.7999999999999999,1,n,0.43900590000339434,None,,,,,,,,sub-051,COM7,41.0,2025-03-05_14h30.19.504,2024_RDpaindiscrimination_QUEST,2023.2.3,59.9786476016441,2025-03-05 14h30.32.095028 -0500,
20,0,20,0,381.09039770000163,,,,381.0748310000017,386.07393910000246,386.07394540000314,386.0904449000009,394.07387890000246,394.07387890000246,396.29061680000086,397.0739653000019,397.0739653000019,397.05741599999965,3.56,5.24,356,524,8,3,1.2,0.75,410,0,417,0.7,0,m,0.4283075999992434,None,,,,,,,,sub-051,COM7,41.0,2025-03-05_14h30.19.504,2024_RDpaindiscrimination_QUEST,2023.2.3,59.9786476016441,2025-03-05 14h30.32.095028 -0500,
21,0,21,0,397.0739653000019,,,,397.0583638999997,402.05752550000034,402.057531800001,402.07392679999975,410.05736140000226,410.05736140000226,412.27400300000227,413.0573643000025,413.0573643000025,413.0408107000003,3.48,5.32,348,532,8,3,1.2,0.75,410,1,418,0.7999999999999999,1,n,0.3407924000021012,None,,,,,,,,sub-051,COM7,41.0,2025-03-05_14h30.19.504,2024_RDpaindiscrimination_QUEST,2023.2.3,59.9786476016441,2025-03-05 14h30.32.095028 -0500,
22,0,22,0,413.0573643000025,,,,413.04177100000015,418.04091809999954,418.0409252000027,418.0573879000003,426.04081080000105,426.04081080000105,428.257490400003,429.04084610000064,429.04084610000064,429.0243573000007,3.76,5.04,376,504,8,3,1.2,0.75,410,2,418,0.7999999999999999,1,n,0.31640540000080364,None,,,,,,,,sub-051,COM7,41.0,2025-03-05_14h30.19.504,2024_RDpaindiscrimination_QUEST,2023.2.3,59.9786476016441,2025-03-05 14h30.32.095028 -0500,
23,0,23,0,429.04084610000064,,,,429.025288300003,434.0244199000008,434.02442599999995,434.040907300001,442.02428950000103,442.02428950000103,444.24104609999995,445.0243862999996,445.0243862999996,445.00787610000043,4.49,4.31,449,430,8,3,1.2,0.75,410,3,417,0.7,0,m,0.41636190000281204,None,,,,,,,,sub-051,COM7,41.0,2025-03-05_14h30.19.504,2024_RDpaindiscrimination_QUEST,2023.2.3,59.9786476016441,2025-03-05 14h30.32.095028 -0500,
24,0,24,0,445.0243862999996,,,,445.00880790000156,450.0079466999996,450.0079533999997,450.0244242000008,458.00787630000195,458.00787630000195,460.22455640000044,461.00791220000247,461.00791220000247,460.99143560000084,3.3,5.5,330,550,8,3,1.2,0.75,410,0,418,0.7999999999999999,0,m,0.3808437000006961,None,,,,,,,,sub-051,COM7,41.0,2025-03-05_14h30.19.504,2024_RDpaindiscrimination_QUEST,2023.2.3,59.9786476016441,2025-03-05 14h30.32.095028 -0500,
25,0,25,0,461.00791220000247,,,,460.99238360000163,465.99144739999974,465.99145390000194,466.007961000003,473.99139020000075,473.99139020000075,476.2080702000021,476.991426200002,476.991426200002,476.9749386000003,3.78,5.02,378,501,8,3,1.2,0.75,410,1,419,0.8999999999999999,1,n,0.46565239999836194,None,,,,,,,,sub-051,COM7,41.0,2025-03-05_14h30.19.504,2024_RDpaindiscrimination_QUEST,2023.2.3,59.9786476016441,2025-03-05 14h30.32.095028 -0500,
26,0,26,0,476.991426200002,,,,476.9759043000013,481.9749158000013,481.974922100002,481.9914333000015,489.974854600001,489.974854600001,492.1915829000027,492.97492500000226,492.97492500000226,492.9584476000018,4.7,4.1,470,409,8,3,1.2,0.75,410,2,419,0.8999999999999999,1,n,0.5990091999992728,None,,,,,,,,sub-051,COM7,41.0,2025-03-05_14h30.19.504,2024_RDpaindiscrimination_QUEST,2023.2.3,59.9786476016441,2025-03-05 14h30.32.095028 -0500,
27,0,27,0,492.97492500000226,,,,492.9594001000005,497.95847160000267,497.9584778999997,497.97496890000184,505.95841190000283,505.95841190000283,508.17509920000157,508.9584802999998,508.9584802999998,508.9419127000001,3.75,5.05,375,505,8,3,1.2,0.75,410,3,418,0.7999999999999999,0,m,0.306768500002363,None,,,,,,,,sub-051,COM7,41.0,2025-03-05_14h30.19.504,2024_RDpaindiscrimination_QUEST,2023.2.3,59.9786476016441,2025-03-05 14h30.32.095028 -0500,
28,0,28,0,508.9584802999998,,,,508.94287299999996,513.9419865000018,513.9419925000002,513.9584788000029,521.9419259000024,521.9419259000024,524.1585326000022,524.9419632000026,524.9419632000026,524.9254710000023,4.16,4.64,416,463,8,3,1.2,0.75,410,0,419,0.8999999999999999,1,n,0.7509375000008731,None,,,,,,,,sub-051,COM7,41.0,2025-03-05_14h30.19.504,2024_RDpaindiscrimination_QUEST,2023.2.3,59.9786476016441,2025-03-05 14h30.32.095028 -0500,
29,0,29,0,524.9419632000026,,,,524.9264065999996,529.925528900003,529.9255346999998,529.9420365000005,537.925471100003,537.925471100003,540.1421625000003,540.9255062000011,540.9255062000011,540.9090190999996,4.62,4.18,462,418,8,3,1.2,0.75,410,1,419,0.8999999999999999,1,n,0.4956485000002431,None,,,,,,,,sub-051,COM7,41.0,2025-03-05_14h30.19.504,2024_RDpaindiscrimination_QUEST,2023.2.3,59.9786476016441,2025-03-05 14h30.32.095028 -0500,
30,0,30,0,540.9255062000011,,,,540.9099731000024,545.9090041000018,545.9090104000024,545.9255608000021,553.908982500001,553.908982500001,556.125627100002,556.9089755000023,556.9089755000023,556.8925476000004,4.71,4.09,471,409,8,3,1.2,0.75,410,2,418,0.7999999999999999,1,n,0.35571100000015576,None,,,,,,,,sub-051,COM7,41.0,2025-03-05_14h30.19.504,2024_RDpaindiscrimination_QUEST,2023.2.3,59.9786476016441,2025-03-05 14h30.32.095028 -0500,
31,0,31,0,556.9089755000023,,,,556.8934853999999,561.8925534000009,561.8925599000031,561.9090612,569.8924436000016,569.8924436000016,572.1091376000004,572.8926656000003,572.8926656000003,572.8760419999999,3.29,5.51,329,551,8,3,1.2,0.75,410,3,418,0.7999999999999999,1,n,0.5446765999986383,None,,,,,,,,sub-051,COM7,41.0,2025-03-05_14h30.19.504,2024_RDpaindiscrimination_QUEST,2023.2.3,59.9786476016441,2025-03-05 14h30.32.095028 -0500,
32,0,32,0,572.8926656000003,,,,572.8769630000024,577.8760159000012,577.8760268000005,577.8925481000006,585.8759874999996,585.8759874999996,588.0927025000019,588.8760149000009,588.8760149000009,588.859584400001,4.43,4.37,443,437,8,3,1.2,0.75,410,0,417,0.7,0,m,1.7046641999986605,None,,,,,,,,sub-051,COM7,41.0,2025-03-05_14h30.19.504,2024_RDpaindiscrimination_QUEST,2023.2.3,59.9786476016441,2025-03-05 14h30.32.095028 -0500,
,,,,,,,,,,,,,,,,,,,,,,,,,,,,,,,,,,588.8604448000006,588.8760149000009,594.9427682000023,594.8595163999998,0.7999999999999999,41.8,0.8278216348336963,,,,,,,,,
