series.thisRepN,series.thisTrialN,series.thisN,series.thisIndex,Ramp.thisRepN,Ramp.thisTrialN,Ramp.thisN,Ramp.thisIndex,trials.thisRepN,trials.thisTrialN,trials.thisN,trials.thisIndex,thisRow.t,notes,Welcome.started,Welcome.stopped,instructions2.started,instructions2.stopped,instructions_start_ramp.started,instructions_start_ramp.stopped,confirm_continue.started,key_resp_8.started,confirm_continue.stopped,intensity,wait1_dur,wait.started,wait.stopped,therm_trig.started,therm_trig.stopped,rating_scale.started,rating_scale.stopped,rating,ratingScale.response,ratingScale.rt,press_when_ready.started,text_2.started,key_resp_3.started,press_when_ready.stopped,key_resp_3.keys,key_resp_3.rt,key_resp_3.duration,bloc_terminé.started,bloc_terminé.stopped,compile_ramps.started,compile_ramps.stopped,deuxieme_start.started,deuxieme_start.stopped,press_when_ready2.started,text_9.started,press_when_ready2.stopped,wait_2.started,wait_2.stopped,therm_trig2.started,therm_trig2.stopped,rating_scale2.started,rating_scale2.stopped,keyResp_2.keys,therm_value,ratingScale_2.response,ratingScale_2.rt,thank_you_output_code.started,thank_you_output_code.stopped,participant,com_thermode,nramps,date,expName,psychopyVersion,frameRate,expStart,
0,0,0,0,0,0,0,0,,,,,12.855295699904673,,0.005189799936488271,3.8554847999475896,3.8554921000031754,11.972163099911995,11.972484199912287,12.838867499958724,12.839168399921618,12.855295699904673,16.439097499940544,41,2.2,16.439265899942257,18.63886399997864,18.638871699920855,30.638893499970436,30.63890099991113,39.01301049999893,6.730727086790012e-14,6.730727086790012e-14,8.349,39.01361539994832,39.02234339993447,39.02234339993447,44.63924419996329,y,5.607098700013012,None,,,,,,,,,,,,,,,,,,,,,,sub-053,COM3,3,2025-06-02_07h44.23.331,2024_RDpaindiscrimination_calibration,2023.2.3,59.96390173551387,2025-06-02 08h14.19.368840 -0400,
0,0,0,0,1,0,1,0,,,,,44.65567209990695,,,,,,,,44.63952789991163,44.65567209990695,45.22256289992947,42,2.4,45.2226714999415,47.62250109994784,47.62250880000647,59.622527699917555,59.62253289995715,71.27712449990213,0.0,0.0,11.635,71.27762069995515,71.2893260999117,71.2893260999117,78.17287319991738,y,6.871818899991922,None,,,,,,,,,,,,,,,,,,,,,,sub-053,COM3,3,2025-06-02_07h44.23.331,2024_RDpaindiscrimination_calibration,2023.2.3,59.96390173551387,2025-06-02 08h14.19.368840 -0400,
0,0,0,0,2,0,2,0,,,,,78.1893164999783,,,,,,,,78.17308259999845,78.1893164999783,78.80623499990907,43,2.4,78.8063484999584,81.20614829997066,81.20615549990907,93.2064860999817,93.20649249991402,115.5435003999155,18.000000000000107,18.000000000000107,22.317,115.5439135999186,115.5563405000139,115.5563405000139,137.34025269991253,y,21.770351800019853,None,,,,,,,,,,,,,,,,,,,,,,sub-053,COM3,3,2025-06-02_07h44.23.331,2024_RDpaindiscrimination_calibration,2023.2.3,59.96390173551387,2025-06-02 08h14.19.368840 -0400,
0,0,0,0,3,0,3,0,,,,,137.35670120001305,,,,,,,,137.34047309996095,137.35670120001305,137.85696000000462,44,2.1,137.85707419994287,139.95687200000975,139.95688009995501,151.95723049994558,151.95723739999812,157.5957573999185,35.00000000000013,35.00000000000013,5.619,157.5962331999326,157.6069606000092,157.6069606000092,159.72369719995186,y,2.1103978999890387,None,,,,,,,,,,,,,,,,,,,,,,sub-053,COM3,3,2025-06-02_07h44.23.331,2024_RDpaindiscrimination_calibration,2023.2.3,59.96390173551387,2025-06-02 08h14.19.368840 -0400,
0,0,0,0,4,0,4,0,,,,,159.74011629994493,,,,,,,,159.7239280999638,159.74011629994493,160.273724699975,45,2.5,160.2738325999817,162.77375900000334,162.7737665999448,174.77406199998222,174.7740679999115,181.83003269997425,71.99999999999982,71.99999999999982,7.037,181.8305284999078,181.8405766999349,181.8405766999349,188.9074910999043,y,7.065942199900746,None,,,,,,,,,,,,,,,,,,,,,,sub-053,COM3,3,2025-06-02_07h44.23.331,2024_RDpaindiscrimination_calibration,2023.2.3,59.96390173551387,2025-06-02 08h14.19.368840 -0400,
0,0,0,0,5,0,5,0,,,,,188.92390499997418,,,,,,,,188.9077086999314,188.92390499997418,189.62412349996157,46,2.0,189.62424209993333,191.62403539998922,191.62404279992916,203.62408629991114,203.62409189995378,212.44283909990918,100.0,100.0,8.799,212.44316419993993,212.45747059991118,212.45747059991118,214.87444879999384,n,2.4086041999980807,None,,,,,,,,,,,,,,,,,,,,,,sub-053,COM3,3,2025-06-02_07h44.23.331,2024_RDpaindiscrimination_calibration,2023.2.3,59.96390173551387,2025-06-02 08h14.19.368840 -0400,
0,0,0,0,,,,,,,,,,,,,,,,,,,,,,,,,,,,,,,,,,,,,,214.87462759995833,218.8743536999682,,,,,,,,,,,,,,,,,,,,sub-053,COM3,3,2025-06-02_07h44.23.331,2024_RDpaindiscrimination_calibration,2023.2.3,59.96390173551387,2025-06-02 08h14.19.368840 -0400,
1,0,1,0,0,0,0,0,,,,,240.2411393999355,,,,,,218.87446809990797,240.22474400000647,240.2250871999422,240.2411393999355,241.6247097000014,41,2.4,241.6248752999818,244.02464489999693,244.0246542999521,256.0249982000096,256.0250065999571,262.49537279992364,9.395262345890387e-14,9.395262345890387e-14,6.451,262.4958983999677,262.50806249992456,262.50806249992456,264.2750143999001,y,1.7576330999145284,None,,,,,,,,,,,,,,,,,,,,,,sub-053,COM3,3,2025-06-02_07h44.23.331,2024_RDpaindiscrimination_calibration,2023.2.3,59.96390173551387,2025-06-02 08h14.19.368840 -0400,
1,0,1,0,1,0,1,0,,,,,264.29141780000646,,,,,,,,264.27531029994134,264.29141780000646,265.42488519998733,42,2.5,265.42499049997423,267.92483729997184,267.92484449991025,279.92495649994817,279.9249620999908,285.645462699933,0.0,0.0,5.702,285.64588089997414,285.6583282999927,285.6583282999927,288.20863239991013,y,2.5352797000668943,None,,,,,,,,,,,,,,,,,,,,,,sub-053,COM3,3,2025-06-02_07h44.23.331,2024_RDpaindiscrimination_calibration,2023.2.3,59.96390173551387,2025-06-02 08h14.19.368840 -0400,
1,0,1,0,2,0,2,0,,,,,288.22503279999364,,,,,,,,288.20884549990296,288.22503279999364,288.6419154999312,43,2.5,288.6420189999044,291.1418883999577,291.1418951000087,303.1419111000141,303.1419164999388,306.83041589998174,0.5000000000000229,0.5000000000000229,3.669,306.83084169996437,306.8419383999426,306.8419383999426,309.0089327999158,y,2.1636245000408962,None,,,,,,,,,,,,,,,,,,,,,,sub-053,COM3,3,2025-06-02_07h44.23.331,2024_RDpaindiscrimination_calibration,2023.2.3,59.96390173551387,2025-06-02 08h14.19.368840 -0400,
1,0,1,0,3,0,3,0,,,,,309.0252298999112,,,,,,,,309.00918229995295,309.0252298999112,309.40883579989895,44,2.1,309.4089376999764,311.5087697999552,311.50877660000697,323.5088305999525,323.50883619999513,330.5477641999023,16.500000000000078,16.500000000000078,7.019,330.5482461999636,330.55892499990296,330.55892499990296,332.7757711999584,y,2.2032299999846146,None,,,,,,,,,,,,,,,,,,,,,,sub-053,COM3,3,2025-06-02_07h44.23.331,2024_RDpaindiscrimination_calibration,2023.2.3,59.96390173551387,2025-06-02 08h14.19.368840 -0400,
1,0,1,0,4,0,4,0,,,,,332.7922196999425,,,,,,,,332.7760045999894,332.7922196999425,333.4924373999238,45,2.5,333.4925530999899,335.9923838999821,335.9923928999342,347.9924345999025,347.9924401999451,353.86303819995373,71.99999999999996,71.99999999999996,5.851,353.8634834999684,353.87580059992615,353.87580059992615,358.50939269992523,y,4.625803399947472,None,,,,,,,,,,,,,,,,,,,,,,sub-053,COM3,3,2025-06-02_07h44.23.331,2024_RDpaindiscrimination_calibration,2023.2.3,59.96390173551387,2025-06-02 08h14.19.368840 -0400,
1,0,1,0,5,0,5,0,,,,,358.52582280000206,,,,,,,,358.50962659996003,358.52582280000206,359.2927409999538,46,2.0,359.29285139997955,361.2927120999666,361.2927185998997,373.292750799912,373.2927562999539,383.3315168999834,100.0,100.0,10.019,383.3319528999273,383.34281219996046,383.34281219996046,385.426390199922,n,2.0827052999520674,None,,,,,,,,,,,,,,,,,,,,,,sub-053,COM3,3,2025-06-02_07h44.23.331,2024_RDpaindiscrimination_calibration,2023.2.3,59.96390173551387,2025-06-02 08h14.19.368840 -0400,
1,0,1,0,,,,,,,,,,,,,,,,,,,,,,,,,,,,,,,,,,,,,,385.4265522999922,389.42622789996676,,,,,,,,,,,,,,,,,,,,sub-053,COM3,3,2025-06-02_07h44.23.331,2024_RDpaindiscrimination_calibration,2023.2.3,59.96390173551387,2025-06-02 08h14.19.368840 -0400,
2,0,2,0,0,0,0,0,,,,,398.5762277999893,,,,,,389.4263382999925,398.559821199975,398.56015859998297,398.5762277999893,399.8597946999362,41,2.4,399.8599550999934,402.2597194999689,402.2597275999142,414.2598008000059,414.25980639993213,417.01416739996057,0.0,0.0,2.684,417.01467249996495,417.0264474999858,417.0264474999858,418.59336699999403,y,1.5549680000403896,None,,,,,,,,,,,,,,,,,,,,,,sub-053,COM3,3,2025-06-02_07h44.23.331,2024_RDpaindiscrimination_calibration,2023.2.3,59.96390173551387,2025-06-02 08h14.19.368840 -0400,
2,0,2,0,1,0,1,0,,,,,418.6097994999727,,,,,,,,418.59364529990125,418.6097994999727,418.9933900999604,42,2.4,418.9934952999465,421.3933712999569,421.3933790998999,433.39375029993244,433.3937570999842,438.41438550001476,0.0,0.0,5.0,438.4148174999282,438.42673939990345,438.42673939990345,440.0769559999462,y,1.6387315000174567,None,,,,,,,,,,,,,,,,,,,,,,sub-053,COM3,3,2025-06-02_07h44.23.331,2024_RDpaindiscrimination_calibration,2023.2.3,59.96390173551387,2025-06-02 08h14.19.368840 -0400,
2,0,2,0,2,0,2,0,,,,,440.09340909996536,,,,,,,,440.07718209992163,440.09340909996536,440.59360889997333,43,2.0,440.5937276999466,442.5935831000097,442.5935902999481,454.5936195999384,454.593624799978,458.0812523999484,15.500000000000005,15.500000000000005,3.468,458.0817211999092,458.0937406999292,458.0937406999292,459.9106083000079,y,1.8124925000593066,None,,,,,,,,,,,,,,,,,,,,,,sub-053,COM3,3,2025-06-02_07h44.23.331,2024_RDpaindiscrimination_calibration,2023.2.3,59.96390173551387,2025-06-02 08h14.19.368840 -0400,
2,0,2,0,3,0,3,0,,,,,459.9269620999694,,,,,,,,459.9108140999451,459.9269620999694,460.39389459998347,44,2.2,460.3939979999559,462.5937983999029,462.5938063999638,474.5938637999352,474.5938694999786,480.1825114999665,21.000000000000078,21.000000000000078,5.57,480.18296849995386,480.1940470999107,480.1940470999107,481.74420279997867,y,1.5476665999740362,None,,,,,,,,,,,,,,,,,,,,,,sub-053,COM3,3,2025-06-02_07h44.23.331,2024_RDpaindiscrimination_calibration,2023.2.3,59.96390173551387,2025-06-02 08h14.19.368840 -0400,
2,0,2,0,4,0,4,0,,,,,481.76057399995625,,,,,,,,481.74440959992353,481.76057399995625,482.19412369991187,45,2.5,482.19422909989953,484.6940796999261,484.6940868999809,496.6941272999393,496.69413359998725,502.33392469992395,50.500000000000036,50.500000000000036,5.62,502.3344158999389,502.3442632999504,502.3442632999504,504.5111909999978,y,2.1654144999338314,None,,,,,,,,,,,,,,,,,,,,,,sub-053,COM3,3,2025-06-02_07h44.23.331,2024_RDpaindiscrimination_calibration,2023.2.3,59.96390173551387,2025-06-02 08h14.19.368840 -0400,
2,0,2,0,5,0,5,0,,,,,504.5275539999129,,,,,,,,504.5114086999092,504.5275539999129,504.9945253999904,46,2.2,504.99462999997195,507.1943779999856,507.1943846999202,519.1944215999683,519.1944270000095,523.8822740999749,77.9999999999999,77.9999999999999,4.668,523.8826850999612,523.8944177000085,523.8944177000085,525.9947593999095,y,2.0910497999284416,None,,,,,,,,,,,,,,,,,,,,,,sub-053,COM3,3,2025-06-02_07h44.23.331,2024_RDpaindiscrimination_calibration,2023.2.3,59.96390173551387,2025-06-02 08h14.19.368840 -0400,
2,0,2,0,6,0,6,0,,,,,526.0111108999699,,,,,,,,525.9949999999953,526.0111108999699,526.6446989999386,47,2.2,526.6448028999148,528.8446292999433,528.8446366999997,540.8447126999963,540.844718499924,543.4989796999143,100.0,100.0,2.635,543.4994107999373,543.5113628999097,543.5113628999097,545.445057899924,n,1.9182606999529526,None,,,,,,,,,,,,,,,,,,,,,,sub-053,COM3,3,2025-06-02_07h44.23.331,2024_RDpaindiscrimination_calibration,2023.2.3,59.96390173551387,2025-06-02 08h14.19.368840 -0400,
2,0,2,0,,,,,,,,,,,,,,,,,,,,,,,,,,,,,,,,,,,,,,545.4452391999075,549.4449060999323,,,,,,,,,,,,,,,,,,,,sub-053,COM3,3,2025-06-02_07h44.23.331,2024_RDpaindiscrimination_calibration,2023.2.3,59.96390173551387,2025-06-02 08h14.19.368840 -0400,
,,,,,,,,0,0,0,0,582.7785414999817,,,,,,,,,,,,2.0,,,,,,,100.0,,,,,,,,,,,,549.4449322000146,554.4614864999894,554.4614930999232,582.7621516999789,582.7625117999269,582.7785414999817,584.8954308999237,584.8954396999907,586.8953631999902,586.8953719999408,598.8955349999014,598.8955409999471,603.5680165999802,None,46.7,100.0,4.654,,,sub-053,COM3,3,2025-06-02_07h44.23.331,2024_RDpaindiscrimination_calibration,2023.2.3,59.96390173551387,2025-06-02 08h14.19.368840 -0400,
,,,,,,,,1,0,1,0,603.595421899925,,,,,,,,,,,,2.0,,,,,,,97.50000000000011,,,,,,,,,,,,,,,,603.5693610999733,603.595421899925,605.1957867000019,605.1957946999464,607.1956674999092,607.1956749999663,619.1960121999728,619.1960194999119,624.4171573999338,None,45.2,97.50000000000011,5.202,,,sub-053,COM3,3,2025-06-02_07h44.23.331,2024_RDpaindiscrimination_calibration,2023.2.3,59.96390173551387,2025-06-02 08h14.19.368840 -0400,
,,,,,,,,2,0,2,0,624.4457000999246,,,,,,,,,,,,2.4,,,,,,,22.0000000000001,,,,,,,,,,,,,,,,624.4181674999418,624.4457000999246,625.7793071999913,625.7793152999366,628.1792674999451,628.179275500006,640.1792958999285,640.1793021999765,644.8505547000095,None,44.2,22.0000000000001,4.652,,,sub-053,COM3,3,2025-06-02_07h44.23.331,2024_RDpaindiscrimination_calibration,2023.2.3,59.96390173551387,2025-06-02 08h14.19.368840 -0400,
,,,,,,,,3,0,3,0,644.862730099936,,,,,,,,,,,,2.2,,,,,,,94.50000000000006,,,,,,,,,,,,,,,,644.8515131999739,644.862730099936,646.1962634999072,646.1962715999689,648.3961394999642,648.3961478999117,660.3965406999923,660.3965479999315,665.6010490999324,None,45.5,94.50000000000006,5.185,,,sub-053,COM3,3,2025-06-02_07h44.23.331,2024_RDpaindiscrimination_calibration,2023.2.3,59.96390173551387,2025-06-02 08h14.19.368840 -0400,
,,,,,,,,4,0,4,0,665.6130045999307,,,,,,,,,,,,2.3,,,,,,,100.0,,,,,,,,,,,,,,,,665.6019663999323,665.6130045999307,667.0631234999746,667.0631329999305,669.3630479999119,669.3630555999698,681.3630749000004,681.3630808999296,686.3341264999472,None,47.0,100.0,4.952,,,sub-053,COM3,3,2025-06-02_07h44.23.331,2024_RDpaindiscrimination_calibration,2023.2.3,59.96390173551387,2025-06-02 08h14.19.368840 -0400,
,,,,,,,,5,0,5,0,686.3465127999661,,,,,,,,,,,,2.3,,,,,,,30.0,,,,,,,,,,,,,,,,686.3350651999936,686.3465127999661,691.0300907999044,691.0300988999661,693.3300006999634,693.3300100999186,705.3300362000009,705.3300425999332,713.0513864000095,None,46.1,30.0,7.701,,,sub-053,COM3,3,2025-06-02_07h44.23.331,2024_RDpaindiscrimination_calibration,2023.2.3,59.96390173551387,2025-06-02 08h14.19.368840 -0400,
,,,,,,,,6,0,6,0,713.0635238999967,,,,,,,,,,,,2.1,,,,,,,100.0,,,,,,,,,,,,,,,,713.0523310999852,713.0635238999967,714.6470498999115,714.6470577999717,716.7469507999485,716.7469587000087,728.747114699916,728.7471202999586,734.4517072999151,None,46.4,100.0,5.686,,,sub-053,COM3,3,2025-06-02_07h44.23.331,2024_RDpaindiscrimination_calibration,2023.2.3,59.96390173551387,2025-06-02 08h14.19.368840 -0400,
,,,,,,,,7,0,7,0,734.4639472999843,,,,,,,,,,,,2.5,,,,,,,40.0,,,,,,,,,,,,,,,,734.4526316999691,734.4639472999843,735.6306428000098,735.6306506999535,738.1306948999409,738.1307034000056,750.1307192000095,750.130725099938,753.0353755999822,None,43.6,40.0,2.885,,,sub-053,COM3,3,2025-06-02_07h44.23.331,2024_RDpaindiscrimination_calibration,2023.2.3,59.96390173551387,2025-06-02 08h14.19.368840 -0400,
,,,,,,,,8,0,8,0,753.0474326999392,,,,,,,,,,,,2.1,,,,,,,45.49999999999991,,,,,,,,,,,,,,,,753.0364221999189,753.0474326999392,754.1976805999875,754.197688599932,756.2976058999775,756.2976156999357,768.297965799924,768.2979725999758,773.2533246999374,None,44.5,45.49999999999991,4.936,,,sub-053,COM3,3,2025-06-02_07h44.23.331,2024_RDpaindiscrimination_calibration,2023.2.3,59.96390173551387,2025-06-02 08h14.19.368840 -0400,
,,,,,,,,9,0,9,0,773.2643278999021,,,,,,,,,,,,2.4,,,,,,,4.000000000000022,,,,,,,,,,,,,,,,773.2542696999153,773.2643278999021,774.4478802999947,774.4478881999385,776.8478194999043,776.8478277999675,788.8478877999587,788.8478936000029,793.0351960000116,None,43.3,4.000000000000022,4.168,,,sub-053,COM3,3,2025-06-02_07h44.23.331,2024_RDpaindiscrimination_calibration,2023.2.3,59.96390173551387,2025-06-02 08h14.19.368840 -0400,
,,,,,,,,10,0,10,0,793.0477719999617,,,,,,,,,,,,2.0,,,,,,,1.5000000000000002,,,,,,,,,,,,,,,,793.0361218999606,793.0477719999617,794.8648053999059,794.8648133999668,796.8647493999451,796.8647575000068,808.8651380999945,808.8651457999367,818.7529091999168,None,43.0,1.5000000000000002,9.868,,,sub-053,COM3,3,2025-06-02_07h44.23.331,2024_RDpaindiscrimination_calibration,2023.2.3,59.96390173551387,2025-06-02 08h14.19.368840 -0400,
,,,,,,,,11,0,11,0,818.764878799906,,,,,,,,,,,,2.3,,,,,,,1.0000000000002005,,,,,,,,,,,,,,,,818.7538205999881,818.764878799906,820.0650767999468,820.06508510001,822.3650302999886,822.3650407999521,834.3651062999852,834.3651127999183,841.3864640999818,None,43.9,1.0000000000002005,7.002,,,sub-053,COM3,3,2025-06-02_07h44.23.331,2024_RDpaindiscrimination_calibration,2023.2.3,59.96390173551387,2025-06-02 08h14.19.368840 -0400,
,,,,,,,,12,0,12,0,841.3984917999478,,,,,,,,,,,,2.0,,,,,,,10.0,,,,,,,,,,,,,,,,841.3874194999225,841.3984917999478,842.5987369999057,842.5987447999651,844.5986897000112,844.5986968999496,856.5990725999,856.5990793999517,859.4704299999867,None,44.8,10.0,2.852,,,sub-053,COM3,3,2025-06-02_07h44.23.331,2024_RDpaindiscrimination_calibration,2023.2.3,59.96390173551387,2025-06-02 08h14.19.368840 -0400,
,,,,,,,,13,0,13,0,859.4821390999714,,,,,,,,,,,,2.4,,,,,,,23.5000000000002,,,,,,,,,,,,,,,,859.4713945999974,859.4821390999714,860.8323279999895,860.8323352999287,863.2322234999156,863.2322305999696,875.2322835999075,875.2322892999509,881.4530910999747,None,45.8,23.5000000000002,6.202,,,sub-053,COM3,3,2025-06-02_07h44.23.331,2024_RDpaindiscrimination_calibration,2023.2.3,59.96390173551387,2025-06-02 08h14.19.368840 -0400,
,,,,,,,,,,,,,,,,,,,,,,,,,,,,,,,,,,,,,,,,,,,,,,,,,,,,,,,,,,,,881.4538346999325,886.4657007999485,,,,,,,,,
