trials.thisRepN,trials.thisTrialN,trials.thisN,trials.thisIndex,thisRow.t,notes,trial.started,trial.stopped,wait.started,wait.stopped,triggerrrs.started,thermode_locali_pic.started,percu_or.started,responser.started,thermode_locali_pic.stopped,percu_or.stopped,responser.stopped,triggerrrs.stopped,dur_plateau1,dur_plateau2,dur_plateau1_sent,dur_plateau2_sent,start_plateau_2_resp,start_detect_cue,dur_pic,dur_rise,temp_plateau_sent,loca_thermode,pic_sent,quest_intens,pic_response,discrimin_resp.keys,discrimin_resp.rt,discrimin_resp.duration,Cali_fin.started,text.started,text.stopped,Cali_fin.stopped,mean_6_reversals,pic_a_utiliser,threshold,participant,com_thermode,temp_plateau,date,expName,psychopyVersion,frameRate,expStart,
0,0,0,0,137.45465190000004,,0.003212599999642407,137.4382403999998,137.43864589999976,142.4381398999999,142.43814569999995,142.45460989999992,150.43799529999978,150.43799529999978,152.6547596999999,153.43813009999985,153.43813009999985,153.42165709999972,3.62,5.18,362,518,8,3,1.2,0.75,464,0,472,0.8,0,n,1.1807991999999103,None,,,,,,,,sub-064,COM3,46.4,2025-09-09_13h36.16.063,2024_RDpaindiscrimination_QUEST,2023.2.3,60.000132000258695,2025-09-09 13h36.33.967845 -0400,
1,0,1,0,153.43813009999985,,,,153.4228667999996,158.42161799999985,158.4216234999999,158.43815349999977,166.43822109999974,166.43822109999974,168.63818709999987,169.43817349999972,169.43817349999972,169.4216564999997,3.56,5.24,356,524,8,3,1.2,0.75,464,1,474,1,0,n,0.38423889999967287,None,,,,,,,,sub-064,COM3,46.4,2025-09-09_13h36.16.063,2024_RDpaindiscrimination_QUEST,2023.2.3,60.000132000258695,2025-09-09 13h36.33.967845 -0400,
2,0,2,0,169.43817349999972,,,,169.42259969999986,174.42177189999984,174.4217776999999,174.4382410999997,182.4217136999996,182.4217136999996,184.6383579999997,185.4217481999999,185.4217481999999,185.40527159999965,4.44,4.36,444,436,8,3,1.2,0.75,464,2,474,1,0,n,0.4405268000000433,None,,,,,,,,sub-064,COM3,46.4,2025-09-09_13h36.16.063,2024_RDpaindiscrimination_QUEST,2023.2.3,60.000132000258695,2025-09-09 13h36.33.967845 -0400,
3,0,3,0,185.4217481999999,,,,185.40621069999997,190.4053418999997,190.4053469999999,190.42184129999987,198.40525639999987,198.40525639999987,200.6219355999997,201.40526669999963,201.40526669999963,201.38876129999971,3.68,5.12,368,512,8,3,1.2,0.75,464,3,474,1,0,n,1.084949300000062,None,,,,,,,,sub-064,COM3,46.4,2025-09-09_13h36.16.063,2024_RDpaindiscrimination_QUEST,2023.2.3,60.000132000258695,2025-09-09 13h36.33.967845 -0400,
4,0,4,0,201.40526669999963,,,,201.38970470000004,206.38878339999974,206.38878879999993,206.40532789999997,214.38874309999983,214.38874309999983,216.60543899999993,217.38876619999974,217.38876619999974,217.3722558999998,3.4,5.4,340,540,8,3,1.2,0.75,464,0,474,1,0,n,0.9863913999997749,None,,,,,,,,sub-064,COM3,46.4,2025-09-09_13h36.16.063,2024_RDpaindiscrimination_QUEST,2023.2.3,60.000132000258695,2025-09-09 13h36.33.967845 -0400,
5,0,5,0,217.38876619999974,,,,217.3732103999996,222.3722155999999,222.37222119999979,222.38874050000004,230.37223909999966,230.37223909999966,232.58894250000003,233.37226889999965,233.37226889999965,233.35572890000003,3.97,4.83,397,483,8,3,1.2,0.75,464,1,474,1,1,m,0.7026217000002362,None,,,,,,,,sub-064,COM3,46.4,2025-09-09_13h36.16.063,2024_RDpaindiscrimination_QUEST,2023.2.3,60.000132000258695,2025-09-09 13h36.33.967845 -0400,
6,0,6,0,233.37226889999965,,,,233.35664150000002,238.3557834999997,238.35578940000005,238.37235089999967,246.35575010000002,246.35575010000002,248.57242159999987,249.3557483999998,249.3557483999998,249.33926219999967,4.4,4.4,440,440,8,3,1.2,0.75,464,2,471,0.7,1,m,0.31021929999997155,None,,,,,,,,sub-064,COM3,46.4,2025-09-09_13h36.16.063,2024_RDpaindiscrimination_QUEST,2023.2.3,60.000132000258695,2025-09-09 13h36.33.967845 -0400,
7,0,7,0,249.3557483999998,,,,249.3401798,254.3393099,254.33931589999975,254.3558192999999,262.33919739999965,262.33919739999965,264.5559106999999,265.33921029999965,265.33921029999965,265.3227616999998,4.56,4.24,455,424,8,3,1.2,0.75,464,3,471,0.7,1,m,0.4444462999999814,None,,,,,,,,sub-064,COM3,46.4,2025-09-09_13h36.16.063,2024_RDpaindiscrimination_QUEST,2023.2.3,60.000132000258695,2025-09-09 13h36.33.967845 -0400,
8,0,8,0,265.33921029999965,,,,265.3236829999996,270.3227678999997,270.32277380000005,270.33926440000005,278.3226319999999,278.3226319999999,280.5393153,281.32266630000004,281.32266630000004,281.3062086,4.03,4.77,403,476,8,3,1.2,0.75,464,0,468,0.39999999999999997,0,n,1.036873800000194,None,,,,,,,,sub-064,COM3,46.4,2025-09-09_13h36.16.063,2024_RDpaindiscrimination_QUEST,2023.2.3,60.000132000258695,2025-09-09 13h36.33.967845 -0400,
9,0,9,0,281.32266630000004,,,,281.30712779999976,286.30627860000004,286.3062838999999,286.32280779999974,294.3062246999998,294.3062246999998,296.5229801999999,297.3062473,297.3062473,297.28973069999984,3.31,5.49,331,549,8,3,1.2,0.75,464,1,470,0.6,0,n,0.3610062999996444,None,,,,,,,,sub-064,COM3,46.4,2025-09-09_13h36.16.063,2024_RDpaindiscrimination_QUEST,2023.2.3,60.000132000258695,2025-09-09 13h36.33.967845 -0400,
10,0,10,0,297.3062473,,,,297.2906730999998,302.28976829999965,302.28977499999974,302.3063395999998,310.28971299999967,310.28971299999967,312.5064153999997,313.2897539999999,313.2897539999999,313.2732453999997,3.53,5.27,353,527,8,3,1.2,0.75,464,2,472,0.8,1,m,0.4339979999999741,None,,,,,,,,sub-064,COM3,46.4,2025-09-09_13h36.16.063,2024_RDpaindiscrimination_QUEST,2023.2.3,60.000132000258695,2025-09-09 13h36.33.967845 -0400,
11,0,11,0,313.2897539999999,,,,313.27419139999984,318.2732683999998,318.2732741,318.28979149999986,326.27323479999995,326.27323479999995,328.48990109999977,329.2732498999999,329.2732498999999,329.25673449999977,4.29,4.51,429,451,8,3,1.2,0.75,464,3,472,0.8,1,m,0.34873760000027687,None,,,,,,,,sub-064,COM3,46.4,2025-09-09_13h36.16.063,2024_RDpaindiscrimination_QUEST,2023.2.3,60.000132000258695,2025-09-09 13h36.33.967845 -0400,
12,0,12,0,329.2732498999999,,,,329.2576670999997,334.2567362999994,334.25674409999965,334.2733156999998,342.25670799999943,342.25670799999943,344.4734029999995,345.2567047999996,345.2567047999996,345.24025370000027,4.1,4.7,409,470,8,3,1.2,0.75,464,0,471,0.7000000000000001,0,n,1.141930699999648,None,,,,,,,,sub-064,COM3,46.4,2025-09-09_13h36.16.063,2024_RDpaindiscrimination_QUEST,2023.2.3,60.000132000258695,2025-09-09 13h36.33.967845 -0400,
13,0,13,0,345.2567047999996,,,,345.24123349999945,350.2401344999994,350.2401407000002,350.25670429999946,358.2402185999995,358.2402185999995,360.4569041999998,361.2401926999996,361.2401926999996,361.2237381,4.67,4.13,467,413,8,3,1.2,0.75,464,1,472,0.8,1,m,0.8709754999999859,None,,,,,,,,sub-064,COM3,46.4,2025-09-09_13h36.16.063,2024_RDpaindiscrimination_QUEST,2023.2.3,60.000132000258695,2025-09-09 13h36.33.967845 -0400,
14,0,14,0,361.2401926999996,,,,361.2247185000001,366.22364770000013,366.2236539999999,366.2402483000001,374.22382210000023,374.22382210000023,376.4403563999999,377.22373670000025,377.22373670000025,377.2073341999999,4.42,4.38,442,438,8,3,1.2,0.75,464,2,472,0.8,1,m,0.4829863999993904,None,,,,,,,,sub-064,COM3,46.4,2025-09-09_13h36.16.063,2024_RDpaindiscrimination_QUEST,2023.2.3,60.000132000258695,2025-09-09 13h36.33.967845 -0400,
15,0,15,0,377.22373670000025,,,,377.20831059999955,382.20712909999975,382.20713469999964,382.22367089999943,390.22375259999944,390.22375259999944,392.4238031,393.22381840000025,393.22381840000025,393.2072570999994,3.58,5.22,358,522,8,3,1.2,0.75,464,3,471,0.7000000000000001,1,m,0.4345305999995617,None,,,,,,,,sub-064,COM3,46.4,2025-09-09_13h36.16.063,2024_RDpaindiscrimination_QUEST,2023.2.3,60.000132000258695,2025-09-09 13h36.33.967845 -0400,
16,0,16,0,393.22381840000025,,,,393.20816179999974,398.2072882999996,398.2072936999998,398.22386099999994,406.2074063999994,406.2074063999994,408.4239352999998,409.20727919999945,409.20727919999945,409.1907682999995,4.1,4.7,409,470,8,3,1.2,0.75,464,0,471,0.7000000000000001,0,n,0.910991699999613,None,,,,,,,,sub-064,COM3,46.4,2025-09-09_13h36.16.063,2024_RDpaindiscrimination_QUEST,2023.2.3,60.000132000258695,2025-09-09 13h36.33.967845 -0400,
17,0,17,0,409.20727919999945,,,,409.19167659999994,414.1908635999994,414.1908688999997,414.2073561000002,422.1908133000002,422.1908133000002,424.4075154999996,425.1907927999996,425.1907927999996,425.1743241999998,4.37,4.43,437,443,8,3,1.2,0.75,464,1,472,0.8,0,n,1.135710300000028,None,,,,,,,,sub-064,COM3,46.4,2025-09-09_13h36.16.063,2024_RDpaindiscrimination_QUEST,2023.2.3,60.000132000258695,2025-09-09 13h36.33.967845 -0400,
18,0,18,0,425.1907927999996,,,,425.1752716999995,430.17435780000005,430.17436359999965,430.1909045999996,438.17432679999956,438.17432679999956,440.39103959999966,441.1743357999999,441.1743357999999,441.15782660000013,4.27,4.53,426,453,8,3,1.2,0.75,464,2,473,0.9,1,m,0.38823520000005374,None,,,,,,,,sub-064,COM3,46.4,2025-09-09_13h36.16.063,2024_RDpaindiscrimination_QUEST,2023.2.3,60.000132000258695,2025-09-09 13h36.33.967845 -0400,
19,0,19,0,441.1743357999999,,,,441.15873039999997,446.1578978000002,446.15790439999955,446.17442639999945,454.1578083999998,454.1578083999998,456.37449929999957,457.1577717999994,457.1577717999994,457.1412816999996,4.15,4.65,415,465,8,3,1.2,0.75,464,3,473,0.9,1,m,0.9402190000000701,None,,,,,,,,sub-064,COM3,46.4,2025-09-09_13h36.16.063,2024_RDpaindiscrimination_QUEST,2023.2.3,60.000132000258695,2025-09-09 13h36.33.967845 -0400,
20,0,20,0,457.1577717999994,,,,457.1422302999995,462.1413815000001,462.1413870000001,462.1578875,470.1413529999995,470.1413529999995,472.3580307999996,473.14125659999945,473.14125659999945,473.1247701999996,4.59,4.21,459,421,8,3,1.2,0.75,464,0,472,0.8,0,n,0.9044635999998718,None,,,,,,,,sub-064,COM3,46.4,2025-09-09_13h36.16.063,2024_RDpaindiscrimination_QUEST,2023.2.3,60.000132000258695,2025-09-09 13h36.33.967845 -0400,
21,0,21,0,473.14125659999945,,,,473.1257120999994,478.12483459999976,478.12484040000027,478.14139399999976,486.12475870000026,486.12475870000026,488.34148119999963,489.1248707,489.1248707,489.1083515999994,3.51,5.29,351,529,8,3,1.2,0.75,464,1,473,0.9,0,n,1.6209631000001536,None,,,,,,,,sub-064,COM3,46.4,2025-09-09_13h36.16.063,2024_RDpaindiscrimination_QUEST,2023.2.3,60.000132000258695,2025-09-09 13h36.33.967845 -0400,
22,0,22,0,489.1248707,,,,489.10930150000013,494.1083217999999,494.1083273999998,494.12491420000015,502.10833950000006,502.10833950000006,504.32502479999994,505.1082904,505.1082904,505.09186809999983,4.28,4.52,428,451,8,3,1.2,0.75,464,2,474,1.0,0,n,1.01807270000063,None,,,,,,,,sub-064,COM3,46.4,2025-09-09_13h36.16.063,2024_RDpaindiscrimination_QUEST,2023.2.3,60.000132000258695,2025-09-09 13h36.33.967845 -0400,
23,0,23,0,505.1082904,,,,505.09281880000026,510.0918936000003,510.0918993999999,510.1083845999997,518.0918355999997,518.0918355999997,520.3084924999998,521.0918506000003,521.0918506000003,521.0752700999997,4.01,4.79,401,479,8,3,1.2,0.75,464,3,474,1,0,n,0.8979978000006668,None,,,,,,,,sub-064,COM3,46.4,2025-09-09_13h36.16.063,2024_RDpaindiscrimination_QUEST,2023.2.3,60.000132000258695,2025-09-09 13h36.33.967845 -0400,
24,0,24,0,521.0918506000003,,,,521.0762098,526.0753542999996,526.0753605999994,526.0918984999994,534.0753284999996,534.0753284999996,536.2919883999998,537.0753603999997,537.0753603999997,537.0588490999994,4.5,4.3,450,430,8,3,1.2,0.75,464,0,474,1,0,n,0.758907200000067,None,,,,,,,,sub-064,COM3,46.4,2025-09-09_13h36.16.063,2024_RDpaindiscrimination_QUEST,2023.2.3,60.000132000258695,2025-09-09 13h36.33.967845 -0400,
25,0,25,0,537.0753603999997,,,,537.0597698999995,542.0588290999999,542.0588347999997,542.0752939999998,550.0588304999997,550.0588304999997,552.2754442999999,553.0588689000001,553.0588689000001,553.042328,4.6,4.2,459,420,8,3,1.2,0.75,464,1,474,1,1,m,0.4072177999996711,None,,,,,,,,sub-064,COM3,46.4,2025-09-09_13h36.16.063,2024_RDpaindiscrimination_QUEST,2023.2.3,60.000132000258695,2025-09-09 13h36.33.967845 -0400,
26,0,26,0,553.0588689000001,,,,553.0432449999994,558.0424400999996,558.0424456999995,558.0589114999998,566.0422796999997,566.0422796999997,568.2589721999998,569.0423172999995,569.0423172999995,569.0257723,3.68,5.12,368,512,8,3,1.2,0.75,464,2,474,1,1,m,0.7196599999997488,None,,,,,,,,sub-064,COM3,46.4,2025-09-09_13h36.16.063,2024_RDpaindiscrimination_QUEST,2023.2.3,60.000132000258695,2025-09-09 13h36.33.967845 -0400,
27,0,27,0,569.0423172999995,,,,569.0267057999995,574.0258527999999,574.0258585999995,574.0424189999999,582.0257912000002,582.0257912000002,584.2424816999996,585.0258757999995,585.0258757999995,585.0094144,3.86,4.94,386,494,8,3,1.2,0.75,464,3,473,0.9,1,m,0.2877671000005648,None,,,,,,,,sub-064,COM3,46.4,2025-09-09_13h36.16.063,2024_RDpaindiscrimination_QUEST,2023.2.3,60.000132000258695,2025-09-09 13h36.33.967845 -0400,
28,0,28,0,585.0258757999995,,,,585.0103276999994,590.0093813999997,590.0093867,590.0259204999998,598.0093282000003,598.0093282000003,600.2259528999998,601.0092496000002,601.0092496000002,600.9927624999996,4.4,4.4,440,440,8,3,1.2,0.75,464,0,473,0.9,1,m,0.4286148000001049,None,,,,,,,,sub-064,COM3,46.4,2025-09-09_13h36.16.063,2024_RDpaindiscrimination_QUEST,2023.2.3,60.000132000258695,2025-09-09 13h36.33.967845 -0400,
29,0,29,0,601.0092496000002,,,,600.9936955999997,605.9928386999995,605.9928440999997,606.0094126999998,613.9928438000002,613.9928438000002,616.2095084999996,616.9927873000001,616.9927873000001,616.9763504999996,4.56,4.24,455,424,8,3,1.2,0.75,464,1,472,0.8,1,m,0.3130682999999408,None,,,,,,,,sub-064,COM3,46.4,2025-09-09_13h36.16.063,2024_RDpaindiscrimination_QUEST,2023.2.3,60.000132000258695,2025-09-09 13h36.33.967845 -0400,
30,0,30,0,616.9927873000001,,,,616.9772593000002,621.9762913,621.9762968,621.9929533,629.9763373999999,629.9763373999999,632.1930146,632.9763695999995,632.9763695999995,632.9598368000002,4.55,4.25,455,425,8,3,1.2,0.75,464,2,472,0.8,1,m,0.4738644999997632,None,,,,,,,,sub-064,COM3,46.4,2025-09-09_13h36.16.063,2024_RDpaindiscrimination_QUEST,2023.2.3,60.000132000258695,2025-09-09 13h36.33.967845 -0400,
31,0,31,0,632.9763695999995,,,,632.9607572999998,637.9598725999999,637.9598780000001,637.9763356999997,645.9598323999994,645.9598323999994,648.1764756999996,648.9597781999996,648.9597781999996,648.9433013000003,3.38,5.42,338,542,8,3,1.2,0.75,464,3,471,0.7000000000000001,1,m,0.9902861999999004,None,,,,,,,,sub-064,COM3,46.4,2025-09-09_13h36.16.063,2024_RDpaindiscrimination_QUEST,2023.2.3,60.000132000258695,2025-09-09 13h36.33.967845 -0400,
,,,,,,,,,,,,,,,,,,,,,,,,,,,,,,,,,,648.9441591,648.9597781999996,654.9765043000002,654.9433397999996,0.8166666666666668,47.21666666666667,failed,,,,,,,,,
