series.thisRepN,series.thisTrialN,series.thisN,series.thisIndex,Ramp.thisRepN,Ramp.thisTrialN,Ramp.thisN,Ramp.thisIndex,trials.thisRepN,trials.thisTrialN,trials.thisN,trials.thisIndex,thisRow.t,notes,Welcome.started,Welcome.stopped,instructions2.started,instructions2.stopped,instructions_start_ramp.started,instructions_start_ramp.stopped,confirm_continue.started,key_resp_8.started,confirm_continue.stopped,intensity,wait1_dur,wait.started,wait.stopped,therm_trig.started,therm_trig.stopped,rating_scale.started,rating_scale.stopped,rating,ratingScale.response,ratingScale.rt,press_when_ready.started,text_2.started,key_resp_3.started,press_when_ready.stopped,key_resp_3.keys,key_resp_3.rt,key_resp_3.duration,bloc_terminé.started,bloc_terminé.stopped,compile_ramps.started,compile_ramps.stopped,deuxieme_start.started,deuxieme_start.stopped,press_when_ready2.started,text_9.started,press_when_ready2.stopped,wait_2.started,wait_2.stopped,therm_trig2.started,therm_trig2.stopped,rating_scale2.started,rating_scale2.stopped,keyResp_2.keys,therm_value,ratingScale_2.response,ratingScale_2.rt,thank_you_output_code.started,thank_you_output_code.stopped,participant,com_thermode,nramps,date,expName,psychopyVersion,frameRate,expStart,
0,0,0,0,0,0,0,0,,,,,226.45510279992595,,0.0031296999659389257,216.17197179992218,216.17198069998994,225.3220244999975,225.32238579995465,226.43864569999278,226.43894069991075,226.45510279992595,226.8719834999647,41,2.1,226.87215279997326,228.97195939999074,228.971967499936,240.9724211000139,240.9724282999523,250.1936768000014,2.5,2.5,9.197,250.19423889997415,250.20528220001142,250.20528220001142,252.40561389992945,y,2.1891003999626264,None,,,,,,,,,,,,,,,,,,,,,,sub-068,COM3,3,2025-09-19_15h15.51.347,2024_RDpaindiscrimination_calibration,2023.2.3,60.021595794859174,2025-09-19 15h40.54.638671 -0400,
0,0,0,0,1,0,1,0,,,,,252.42200959997717,,,,,,,,252.40591309999581,252.42200959997717,252.57222480000928,42,2.3,252.57234359998256,254.8721619999269,254.8721702999901,266.8721849999856,266.87219009990804,272.19339209992904,23.00000000000006,23.00000000000006,5.302,272.1938695999561,272.2055331999436,272.2055331999436,273.97237149998546,y,1.7639001999050379,None,,,,,,,,,,,,,,,,,,,,,,sub-068,COM3,3,2025-09-19_15h15.51.347,2024_RDpaindiscrimination_calibration,2023.2.3,60.021595794859174,2025-09-19 15h40.54.638671 -0400,
0,0,0,0,2,0,2,0,,,,,273.9887673999183,,,,,,,,273.9725963999517,273.9887673999183,274.2057272999082,43,2.2,274.20584880001843,276.405712399981,276.4057200999232,288.4061391999712,288.4061461999081,294.86011329991743,54.00000000000002,54.00000000000002,6.435,294.8605500999838,294.87236679997295,294.87236679997295,298.77267049998045,y,3.8852692000800744,None,,,,,,,,,,,,,,,,,,,,,,sub-068,COM3,3,2025-09-19_15h15.51.347,2024_RDpaindiscrimination_calibration,2023.2.3,60.021595794859174,2025-09-19 15h40.54.638671 -0400,
0,0,0,0,3,0,3,0,,,,,298.7891351999715,,,,,,,,298.7728984999703,298.7891351999715,298.98934530001134,44,2.0,298.9894596999511,300.98931500001345,300.9893228999572,312.98969710001256,312.9897038999479,321.3770344000077,74.49999999999984,74.49999999999984,8.367,321.37750429997686,321.389354599989,321.389354599989,331.98971080000047,y,10.587515100021847,None,,,,,,,,,,,,,,,,,,,,,,sub-068,COM3,3,2025-09-19_15h15.51.347,2024_RDpaindiscrimination_calibration,2023.2.3,60.021595794859174,2025-09-19 15h40.54.638671 -0400,
0,0,0,0,4,0,4,0,,,,,332.00612619996537,,,,,,,,331.9899385999888,332.00612619996537,332.2896949999267,45,2.0,332.2898210999556,334.2896026999224,334.2896112999879,346.2898264999967,346.2898342999397,351.0277780999895,100.0,100.0,4.718,351.0282031999668,351.03963799995836,351.03963799995836,352.4899026999483,n,1.4375021000159904,None,,,,,,,,,,,,,,,,,,,,,,sub-068,COM3,3,2025-09-19_15h15.51.347,2024_RDpaindiscrimination_calibration,2023.2.3,60.021595794859174,2025-09-19 15h40.54.638671 -0400,
0,0,0,0,,,,,,,,,,,,,,,,,,,,,,,,,,,,,,,,,,,,,,352.49007099994924,356.48973719996866,,,,,,,,,,,,,,,,,,,,sub-068,COM3,3,2025-09-19_15h15.51.347,2024_RDpaindiscrimination_calibration,2023.2.3,60.021595794859174,2025-09-19 15h40.54.638671 -0400,
1,0,1,0,0,0,0,0,,,,,366.97303019999526,,,,,,356.4898480999982,366.95656999992207,366.95688339998014,366.97303019999526,367.55661949992646,41,2.4,367.5567758999532,369.956657600007,369.95666629995685,381.9570488999598,381.95705570001155,388.6627010999946,23.50000000000002,23.50000000000002,6.685,388.6632516999962,388.6734983000206,388.6734983000206,390.0735069999937,y,1.3915770000312477,None,,,,,,,,,,,,,,,,,,,,,,sub-068,COM3,3,2025-09-19_15h15.51.347,2024_RDpaindiscrimination_calibration,2023.2.3,60.021595794859174,2025-09-19 15h40.54.638671 -0400,
1,0,1,0,1,0,1,0,,,,,390.0899515999481,,,,,,,,390.07377459993586,390.0899515999481,390.25678679998964,42,2.4,390.25688949995674,392.6567800999619,392.6567881000228,404.6571380000096,404.6571441999404,409.0947646999266,23.499999999999986,23.499999999999986,4.417,409.09524269995745,409.10689189995173,409.10689189995173,410.65717429993674,y,1.5384556000353768,None,,,,,,,,,,,,,,,,,,,,,,sub-068,COM3,3,2025-09-19_15h15.51.347,2024_RDpaindiscrimination_calibration,2023.2.3,60.021595794859174,2025-09-19 15h40.54.638671 -0400,
1,0,1,0,2,0,2,0,,,,,410.6735415000003,,,,,,,,410.6573827000102,410.6735415000003,410.8737233999418,43,2.3,410.87384199991357,413.17367509996984,413.1736829999136,425.17404919990804,425.17405569995753,431.0110128999222,53.50000000000002,53.50000000000002,5.817,431.01144849997945,431.0237095999764,431.0237095999764,432.7739543999778,y,1.7418027999810874,None,,,,,,,,,,,,,,,,,,,,,,sub-068,COM3,3,2025-09-19_15h15.51.347,2024_RDpaindiscrimination_calibration,2023.2.3,60.021595794859174,2025-09-19 15h40.54.638671 -0400,
1,0,1,0,3,0,3,0,,,,,432.7903881999664,,,,,,,,432.7741598999128,432.7903881999664,433.02394210000057,44,2.2,433.02405879995786,435.223925499944,435.22393340000417,447.2242396000074,447.22424619994126,453.16238090000115,65.49999999999991,65.49999999999991,5.919,453.1628383999923,453.1740220999345,453.1740220999345,455.0574859000044,y,1.868243100005202,None,,,,,,,,,,,,,,,,,,,,,,sub-068,COM3,3,2025-09-19_15h15.51.347,2024_RDpaindiscrimination_calibration,2023.2.3,60.021595794859174,2025-09-19 15h40.54.638671 -0400,
1,0,1,0,4,0,4,0,,,,,455.07393069996033,,,,,,,,455.05769349995535,455.07393069996033,455.1908475999953,45,2.2,455.1909663999686,457.3907452999847,457.39075209992006,469.39118449995294,469.39119120000396,477.4444874000037,74.99999999999991,74.99999999999991,8.034,477.4449069999391,477.4575269999914,477.4575269999914,480.47442169999704,n,3.0039400999667123,None,,,,,,,,,,,,,,,,,,,,,,sub-068,COM3,3,2025-09-19_15h15.51.347,2024_RDpaindiscrimination_calibration,2023.2.3,60.021595794859174,2025-09-19 15h40.54.638671 -0400,
1,0,1,0,,,,,,,,,,,,,,,,,,,,,,,,,,,,,,,,,,,,,,480.4745937999105,484.47436270001344,,,,,,,,,,,,,,,,,,,,sub-068,COM3,3,2025-09-19_15h15.51.347,2024_RDpaindiscrimination_calibration,2023.2.3,60.021595794859174,2025-09-19 15h40.54.638671 -0400,
2,0,2,0,0,0,0,0,,,,,487.05759829992894,,,,,,484.4744710000232,487.04118810000364,487.04150319995824,487.05759829992894,487.3411399999168,41,2.0,487.3412930999184,489.3410848999629,489.34109240002,501.34112579992507,501.34113099996466,506.2798781999154,60.499999999999936,60.499999999999936,4.919,506.28039889992215,506.2912137999665,506.2912137999665,507.92473540001083,y,1.6215677000582218,None,,,,,,,,,,,,,,,,,,,,,,sub-068,COM3,3,2025-09-19_15h15.51.347,2024_RDpaindiscrimination_calibration,2023.2.3,60.021595794859174,2025-09-19 15h40.54.638671 -0400,
2,0,2,0,1,0,1,0,,,,,507.94117949996144,,,,,,,,507.9250370999798,507.94117949996144,508.2247434000019,42,2.3,508.2248600999592,510.52467539999634,510.5246819999302,522.5247178999707,522.5247235000134,529.1458245000103,73.49999999999991,73.49999999999991,6.602,529.1462889999384,529.1580768999411,529.1580768999411,531.391761799925,y,2.2233414999209344,None,,,,,,,,,,,,,,,,,,,,,,sub-068,COM3,3,2025-09-19_15h15.51.347,2024_RDpaindiscrimination_calibration,2023.2.3,60.021595794859174,2025-09-19 15h40.54.638671 -0400,
2,0,2,0,2,0,2,0,,,,,531.408070800011,,,,,,,,531.3919650999596,531.408070800011,531.6583226999501,43,2.5,531.6584357999964,534.1582196999807,534.1582273999229,546.1582817999879,546.1582872999134,551.012630000012,76.99999999999987,76.99999999999987,4.835,551.0131450999761,551.0249881999334,551.0249881999334,553.9918832000112,y,2.963864199933596,None,,,,,,,,,,,,,,,,,,,,,,sub-068,COM3,3,2025-09-19_15h15.51.347,2024_RDpaindiscrimination_calibration,2023.2.3,60.021595794859174,2025-09-19 15h40.54.638671 -0400,
2,0,2,0,3,0,3,0,,,,,554.0083004999906,,,,,,,,553.992112500011,554.0083004999906,554.3252207000041,44,2.2,554.3253455000231,556.5751917000161,556.5752002999652,568.5755704999901,568.5755775999278,575.5136278999271,75.49999999999991,75.49999999999991,6.918,575.5140613999683,575.5252419000026,575.5252419000026,583.975649299915,y,8.44328270002734,None,,,,,,,,,,,,,,,,,,,,,,sub-068,COM3,3,2025-09-19_15h15.51.347,2024_RDpaindiscrimination_calibration,2023.2.3,60.021595794859174,2025-09-19 15h40.54.638671 -0400,
2,0,2,0,4,0,4,0,,,,,583.9920836000238,,,,,,,,583.9758856999688,583.9920836000238,584.2422153999796,45,2.3,584.2423333999468,586.5421405999223,586.5421484999824,598.542169699911,598.5421749999514,604.6312497999752,97.50000000000003,97.50000000000003,6.07,604.6316953999922,604.6422797999112,604.6422797999112,606.975814400008,n,2.322273400030099,None,,,,,,,,,,,,,,,,,,,,,,sub-068,COM3,3,2025-09-19_15h15.51.347,2024_RDpaindiscrimination_calibration,2023.2.3,60.021595794859174,2025-09-19 15h40.54.638671 -0400,
2,0,2,0,,,,,,,,,,,,,,,,,,,,,,,,,,,,,,,,,,,,,,606.9759979000082,610.9756746999919,,,,,,,,,,,,,,,,,,,,sub-068,COM3,3,2025-09-19_15h15.51.347,2024_RDpaindiscrimination_calibration,2023.2.3,60.021595794859174,2025-09-19 15h40.54.638671 -0400,
,,,,,,,,0,0,0,0,648.2426260999637,,,,,,,,,,,,2.1,,,,,,,82.99999999999983,,,,,,,,,,,,610.975699499948,615.9757366999984,615.9757431999315,648.2262098999927,648.2265420999611,648.2426260999637,649.0763441999443,649.0763520000037,651.1761809999589,651.1761896999087,663.1766094999621,663.1766176000237,668.7475076999981,None,43.8,82.99999999999983,5.552,,,sub-068,COM3,3,2025-09-19_15h15.51.347,2024_RDpaindiscrimination_calibration,2023.2.3,60.021595794859174,2025-09-19 15h40.54.638671 -0400,
,,,,,,,,1,0,1,0,668.7596052999143,,,,,,,,,,,,2.5,,,,,,,51.0000000000001,,,,,,,,,,,,,,,,668.7487580999732,668.7596052999143,669.7098056999967,669.7098137999419,672.2096969999839,672.2097043999238,684.2100690000225,684.2100766999647,687.8625711000059,None,42.8,51.0000000000001,3.632,,,sub-068,COM3,3,2025-09-19_15h15.51.347,2024_RDpaindiscrimination_calibration,2023.2.3,60.021595794859174,2025-09-19 15h40.54.638671 -0400,
,,,,,,,,2,0,2,0,687.8764522999991,,,,,,,,,,,,2.4,,,,,,,46.999999999999986,,,,,,,,,,,,,,,,687.8632048999425,687.8764522999991,689.0932895999867,689.0932967999252,691.493216099916,691.4932243999792,703.4933751999633,703.4933806000045,707.1814459000016,None,42.5,46.999999999999986,3.669,,,sub-068,COM3,3,2025-09-19_15h15.51.347,2024_RDpaindiscrimination_calibration,2023.2.3,60.021595794859174,2025-09-19 15h40.54.638671 -0400,
,,,,,,,,3,0,3,0,707.193388500018,,,,,,,,,,,,2.4,,,,,,,91.00000000000011,,,,,,,,,,,,,,,,707.1823703999398,707.193388500018,708.2103625999298,708.2103703999892,710.61012019997,710.6101276999107,722.6102286999812,722.6102342000231,727.0808752999874,None,44.4,91.00000000000011,4.451,,,sub-068,COM3,3,2025-09-19_15h15.51.347,2024_RDpaindiscrimination_calibration,2023.2.3,60.021595794859174,2025-09-19 15h40.54.638671 -0400,
,,,,,,,,4,0,4,0,727.0936744000064,,,,,,,,,,,,2.2,,,,,,,95.50000000000009,,,,,,,,,,,,,,,,727.0822663999861,727.0936744000064,728.1272992999293,728.1273069999879,730.3270802999614,730.3270886999089,742.3274492999772,742.3274566999171,745.0155345000094,None,44.7,95.50000000000009,2.669,,,sub-068,COM3,3,2025-09-19_15h15.51.347,2024_RDpaindiscrimination_calibration,2023.2.3,60.021595794859174,2025-09-19 15h40.54.638671 -0400,
,,,,,,,,5,0,5,0,745.0271136999363,,,,,,,,,,,,2.5,,,,,,,99.5,,,,,,,,,,,,,,,,745.0164772999706,745.0271136999363,746.1773654000135,746.177373399958,748.6772822999628,748.6772904999088,760.6776922999416,760.6776993999956,766.2149003000231,None,45.0,99.5,5.519,,,sub-068,COM3,3,2025-09-19_15h15.51.347,2024_RDpaindiscrimination_calibration,2023.2.3,60.021595794859174,2025-09-19 15h40.54.638671 -0400,
,,,,,,,,6,0,6,0,766.227387299994,,,,,,,,,,,,2.1,,,,,,,38.99999999999994,,,,,,,,,,,,,,,,766.2158823999343,766.227387299994,767.1108545999741,767.110861999914,769.2108141999925,769.2108218999347,781.2112120999955,781.2112191999331,785.5493869999191,None,41.3,38.99999999999994,4.319,,,sub-068,COM3,3,2025-09-19_15h15.51.347,2024_RDpaindiscrimination_calibration,2023.2.3,60.021595794859174,2025-09-19 15h40.54.638671 -0400,
,,,,,,,,7,0,7,0,785.5609037999529,,,,,,,,,,,,2.5,,,,,,,27.500000000000114,,,,,,,,,,,,,,,,785.5503897999879,785.5609037999529,786.7276459999848,786.7276544999331,789.2277028999524,789.2277110000141,801.2277327999473,801.2277386999922,805.7494314999785,None,41.6,27.500000000000114,4.503,,,sub-068,COM3,3,2025-09-19_15h15.51.347,2024_RDpaindiscrimination_calibration,2023.2.3,60.021595794859174,2025-09-19 15h40.54.638671 -0400,
,,,,,,,,8,0,8,0,805.7610896999249,,,,,,,,,,,,2.1,,,,,,,89.00000000000013,,,,,,,,,,,,,,,,805.7503931999672,805.7610896999249,806.877891400014,806.8779002999654,808.9778827999253,808.977890899987,820.9782988999505,820.9783057000022,823.6336331999628,None,44.1,89.00000000000013,2.636,,,sub-068,COM3,3,2025-09-19_15h15.51.347,2024_RDpaindiscrimination_calibration,2023.2.3,60.021595794859174,2025-09-19 15h40.54.638671 -0400,
,,,,,,,,9,0,9,0,823.644642899977,,,,,,,,,,,,2.1,,,,,,,7.0000000000000595,,,,,,,,,,,,,,,,823.6346149999881,823.644642899977,824.7448447999777,824.7448523999192,826.8447747000027,826.844783199951,838.8452876999509,838.8452940999996,841.632489199983,None,42.2,7.0000000000000595,2.768,,,sub-068,COM3,3,2025-09-19_15h15.51.347,2024_RDpaindiscrimination_calibration,2023.2.3,60.021595794859174,2025-09-19 15h40.54.638671 -0400,
,,,,,,,,10,0,10,0,841.6447938999627,,,,,,,,,,,,2.1,,,,,,,30.000000000000107,,,,,,,,,,,,,,,,841.6334797999589,841.6447938999627,842.6451202000026,842.6451282999478,844.7449736999115,844.7449819999747,856.7453608999494,856.7453677000012,860.3503283999162,None,41.9,30.000000000000107,3.586,,,sub-068,COM3,3,2025-09-19_15h15.51.347,2024_RDpaindiscrimination_calibration,2023.2.3,60.021595794859174,2025-09-19 15h40.54.638671 -0400,
,,,,,,,,11,0,11,0,860.3617267999798,,,,,,,,,,,,2.3,,,,,,,7.50000000000006,,,,,,,,,,,,,,,,860.3513293999713,860.3617267999798,861.3452595999697,861.3452667999081,863.6451607999625,863.6451684000203,875.6455118999584,875.6455190000124,879.2173367999494,None,41.0,7.50000000000006,3.552,,,sub-068,COM3,3,2025-09-19_15h15.51.347,2024_RDpaindiscrimination_calibration,2023.2.3,60.021595794859174,2025-09-19 15h40.54.638671 -0400,
,,,,,,,,12,0,12,0,879.2286319999257,,,,,,,,,,,,2.5,,,,,,,58.00000000000008,,,,,,,,,,,,,,,,879.2183820999926,879.2286319999257,879.8121340000071,879.8121416999493,882.3120004999219,882.3120082999812,894.3123767999932,894.3123840999324,897.2665883000009,None,43.2,58.00000000000008,2.934,,,sub-068,COM3,3,2025-09-19_15h15.51.347,2024_RDpaindiscrimination_calibration,2023.2.3,60.021595794859174,2025-09-19 15h40.54.638671 -0400,
,,,,,,,,13,0,13,0,897.2787374999607,,,,,,,,,,,,2.2,,,,,,,46.500000000000014,,,,,,,,,,,,,,,,897.2675095999148,897.2787374999607,898.4290263999719,898.4290352999233,900.6289038999239,900.6289136999985,912.6289545999607,912.6289609000087,915.7504368999507,None,43.5,46.500000000000014,3.102,,,sub-068,COM3,3,2025-09-19_15h15.51.347,2024_RDpaindiscrimination_calibration,2023.2.3,60.021595794859174,2025-09-19 15h40.54.638671 -0400,
,,,,,,,,,,,,,,,,,,,,,,,,,,,,,,,,,,,,,,,,,,,,,,,,,,,,,,,,,,,,915.7512118999148,920.762241999968,,,,,,,,,
