trials.thisRepN,trials.thisTrialN,trials.thisN,trials.thisIndex,loop_test.thisRepN,loop_test.thisTrialN,loop_test.thisN,loop_test.thisIndex,loop_eval_discri.thisRepN,loop_eval_discri.thisTrialN,loop_eval_discri.thisN,loop_eval_discri.thisIndex,loop_eval.thisRepN,loop_eval.thisTrialN,loop_eval.thisN,loop_eval.thisIndex,loop_discri.thisRepN,loop_discri.thisTrialN,loop_discri.thisN,loop_discri.thisIndex,thisRow.t,notes,Set_up.started,Set_up.stopped,electrode_check.started,electrode_check.stopped,instructions_eval.started,instructions_eval.stopped,pause_5_test.started,pause_5_test.stopped,Phase_Test.started,thermode_locali.started,Phase_Test.stopped,loca_thermode,condition,temp_trial_sent,eval_douleur.started,eval_douleur.stopped,ratingScale.response,ratingScale.rt,thermode_locali.stopped,Fin_test.started,text.started,Fin_test.stopped,pause_5_EVA.started,pause_5_EVA.stopped,tâche_EVA.started,thermode_locali_EVA.started,thermode_locali_EVA.stopped,tâche_EVA.stopped,instructions_discrim.started,instructions_discrim.stopped,pause_5_pic.started,pause_5_pic.stopped,tâche_PIC.started,thermode_locali_pic.started,percu_or.started,responser.started,thermode_locali_pic.stopped,percu_or.stopped,responser.stopped,tâche_PIC.stopped,dur_plateau1,dur_plateau2,dur_plateau1_sent,dur_plateau2_sent,start_plateau_2_resp,dur_pic,dur_rise,pic_presence,pic_response,discrimin_resp.keys,discrimin_resp.rt,discrimin_resp.duration,break_entre_bloc.started,break_entre_bloc.stopped,merci.started,merci.stopped,participant,temp_flat,temp_active,temp_pic_set,com_thermode,date,expName,psychopyVersion,frameRate,expStart,
0,0,0,0,0,0,0,0,,,,,,,,,,,,,274.6395295000002,,0.0032054000002972316,269.37308049999956,269.3734962999997,270.7729896000001,270.7729965999997,274.6064139,274.60668220000025,279.62290630000007,279.6229116000004,279.6395596000002,291.6230905000002,0,inactive,45.8,291.6233291999997,297.79053099999965,5.499999999999988,6.143,,,,,,,,,,,,,,,,,,,,,,,,,,,,,,,,,,,,,,,sub-072,45.8,43.8,46.75,COM3,2026-02-05_15h42.11.097,2024_RDpaindiscrimination_maintask,2023.2.3,60.02945044835792,2026-02-05 15h42.36.651259 -0500,
0,0,0,0,1,0,1,0,,,,,,,,,,,,,297.8064938999996,,,,,,,,297.7908889999999,302.7899397000001,302.7899461999996,302.8064768000004,314.79025139999976,1,inactive,45.8,314.7903868000003,319.8749022000002,15.000000000000068,5.064,314.8232815000001,,,,,,,,,,,,,,,,,,,,,,,,,,,,,,,,,,,,,,sub-072,45.8,43.8,46.75,COM3,2026-02-05_15h42.11.097,2024_RDpaindiscrimination_maintask,2023.2.3,60.02945044835792,2026-02-05 15h42.36.651259 -0500,
0,0,0,0,2,0,2,0,,,,,,,,,,,,,319.8900563999996,,,,,,,,319.8754565999998,324.87355540000044,324.87356180000006,324.89008730000023,336.8739236000001,2,active,43.8,336.87405860000035,340.0596545999997,16.500000000000174,3.165,336.9068490999998,,,,,,,,,,,,,,,,,,,,,,,,,,,,,,,,,,,,,,sub-072,45.8,43.8,46.75,COM3,2026-02-05_15h42.11.097,2024_RDpaindiscrimination_maintask,2023.2.3,60.02945044835792,2026-02-05 15h42.36.651259 -0500,
0,0,0,0,3,0,3,0,,,,,,,,,,,,,340.0736434999999,,,,,,,,340.06043210000007,345.0570944000001,345.05710100000033,345.07361089999995,357.05738680000013,3,inactive,45.8,357.05752630000006,362.8925256000002,41.99999999999996,5.815,357.09046260000014,,,,,,,,,,,,,,,,,,,,,,,,,,,,,,,,,,,,,,sub-072,45.8,43.8,46.75,COM3,2026-02-05_15h42.11.097,2024_RDpaindiscrimination_maintask,2023.2.3,60.02945044835792,2026-02-05 15h42.36.651259 -0500,
0,0,0,0,4,0,4,0,,,,,,,,,,,,,362.907236,,,,,,,,362.8932993999997,367.8906281999998,367.89063389999956,367.90710800000033,379.8908346999997,0,active,43.8,379.89097690000017,384.6761905000003,16.50000000000014,4.766,379.9238812000003,,,,,,,,,,,,,,,,,,,,,,,,,,,,,,,,,,,,,,sub-072,45.8,43.8,46.75,COM3,2026-02-05_15h42.11.097,2024_RDpaindiscrimination_maintask,2023.2.3,60.02945044835792,2026-02-05 15h42.36.651259 -0500,
0,0,0,0,5,0,5,0,,,,,,,,,,,,,384.69075259999954,,,,,,,,384.6769529000003,389.6742285,389.6742350000004,389.6907308,401.6745399000001,1,active,43.8,401.6746744000002,405.9425529,19.999999999999996,4.248,401.7076009000002,,,,,,,,,,,,,,,,,,,,,,,,,,,,,,,,,,,,,,sub-072,45.8,43.8,46.75,COM3,2026-02-05_15h42.11.097,2024_RDpaindiscrimination_maintask,2023.2.3,60.02945044835792,2026-02-05 15h42.36.651259 -0500,
0,0,0,0,6,0,6,0,,,,,,,,,,,,,405.95760729999984,,,,,,,,405.94341170000007,410.94101839999985,410.9410244999999,410.9575484999996,422.9414419000004,2,inactive,45.8,422.94158030000017,427.3436187999996,53.50000000000006,4.381,422.9744526000004,,,,,,,,,,,,,,,,,,,,,,,,,,,,,,,,,,,,,,sub-072,45.8,43.8,46.75,COM3,2026-02-05_15h42.11.097,2024_RDpaindiscrimination_maintask,2023.2.3,60.02945044835792,2026-02-05 15h42.36.651259 -0500,
0,0,0,0,7,0,7,0,,,,,,,,,,,,,427.35782970000037,,,,,,,,427.3444195000002,432.34136409999974,432.3413700000001,432.35789620000014,444.3416070000003,3,inactive,45.8,444.3417406999997,450.0933825000002,64.50000000000006,5.731,444.37460999999985,,,,,,,,,,,,,,,,,,,,,,,,,,,,,,,,,,,,,,sub-072,45.8,43.8,46.75,COM3,2026-02-05_15h42.11.097,2024_RDpaindiscrimination_maintask,2023.2.3,60.02945044835792,2026-02-05 15h42.36.651259 -0500,
0,0,0,0,8,0,8,0,,,,,,,,,,,,,450.1081227000004,,,,,,,,450.09417610000037,455.0916459,455.0916520999999,455.10807190000014,467.0919090999996,0,active,43.8,467.0920457000002,469.6101864000002,10.0,2.498,467.1249633999996,,,,,,,,,,,,,,,,,,,,,,,,,,,,,,,,,,,,,,sub-072,45.8,43.8,46.75,COM3,2026-02-05_15h42.11.097,2024_RDpaindiscrimination_maintask,2023.2.3,60.02945044835792,2026-02-05 15h42.36.651259 -0500,
0,0,0,0,9,0,9,0,,,,,,,,,,,,,469.6250034000004,,,,,,,,469.6109825000003,474.6084713,474.60847749999994,474.62498349999987,486.60882839999977,1,inactive,45.8,486.6089625000004,490.6950976999997,47.499999999999986,4.065,486.64187010000023,,,,,,,,,,,,,,,,,,,,,,,,,,,,,,,,,,,,,,sub-072,45.8,43.8,46.75,COM3,2026-02-05_15h42.11.097,2024_RDpaindiscrimination_maintask,2023.2.3,60.02945044835792,2026-02-05 15h42.36.651259 -0500,
0,0,0,0,10,0,10,0,,,,,,,,,,,,,490.7085637,,,,,,,,490.69588289999956,495.6920871000002,495.6920934,495.7086591999996,507.69244569999955,2,active,43.8,507.6925855999998,510.8435152000002,26.999999999999986,3.131,507.7253773000002,,,,,,,,,,,,,,,,,,,,,,,,,,,,,,,,,,,,,,sub-072,45.8,43.8,46.75,COM3,2026-02-05_15h42.11.097,2024_RDpaindiscrimination_maintask,2023.2.3,60.02945044835792,2026-02-05 15h42.36.651259 -0500,
0,0,0,0,11,0,11,0,,,,,,,,,,,,,510.85883230000036,,,,,,,,510.84426710000025,515.8423019000002,515.8423077999996,515.8587772999999,527.8426108000003,3,active,43.8,527.842748,532.1272227999998,27.000000000000153,4.265,527.8756608000003,,,,,,,,,,,,,,,,,,,,,,,,,,,,,,,,,,,,,,sub-072,45.8,43.8,46.75,COM3,2026-02-05_15h42.11.097,2024_RDpaindiscrimination_maintask,2023.2.3,60.02945044835792,2026-02-05 15h42.36.651259 -0500,
0,0,0,0,12,0,12,0,,,,,,,,,,,,,532.1423568999999,,,,,,,,532.1280260000003,537.1257741999998,537.1257806000003,537.1423801999999,549.126139,0,inactive,45.8,549.1262743999996,551.3787817000002,60.50000000000007,2.233,549.1592025999998,,,,,,,,,,,,,,,,,,,,,,,,,,,,,,,,,,,,,,sub-072,45.8,43.8,46.75,COM3,2026-02-05_15h42.11.097,2024_RDpaindiscrimination_maintask,2023.2.3,60.02945044835792,2026-02-05 15h42.36.651259 -0500,
0,0,0,0,13,0,13,0,,,,,,,,,,,,,551.3925724999999,,,,,,,,551.3795121000003,556.3761212999998,556.3761278000002,556.392621,568.3764093999998,1,active,43.8,568.3765434999996,572.8614369999996,15.000000000000068,4.464,568.4094169,,,,,,,,,,,,,,,,,,,,,,,,,,,,,,,,,,,,,,sub-072,45.8,43.8,46.75,COM3,2026-02-05_15h42.11.097,2024_RDpaindiscrimination_maintask,2023.2.3,60.02945044835792,2026-02-05 15h42.36.651259 -0500,
0,0,0,0,14,0,14,0,,,,,,,,,,,,,572.8761544999998,,,,,,,,572.8621687000004,577.8596624000002,577.8596693999998,577.8761512000001,589.8599262999996,2,inactive,45.8,589.8600626999996,593.0619072,59.49999999999989,3.182,589.8930097000002,,,,,,,,,,,,,,,,,,,,,,,,,,,,,,,,,,,,,,sub-072,45.8,43.8,46.75,COM3,2026-02-05_15h42.11.097,2024_RDpaindiscrimination_maintask,2023.2.3,60.02945044835792,2026-02-05 15h42.36.651259 -0500,
0,0,0,0,15,0,15,0,,,,,,,,,,,,,593.0764433000004,,,,,,,,593.0627314000003,598.0598489000004,598.0598551000003,598.0763800000004,610.0601839000001,3,active,43.8,610.0603179,613.8123478999996,9.500000000000204,3.731,610.0931614000001,,,,,,,,,,,,,,,,,,,,,,,,,,,,,,,,,,,,,,sub-072,45.8,43.8,46.75,COM3,2026-02-05_15h42.11.097,2024_RDpaindiscrimination_maintask,2023.2.3,60.02945044835792,2026-02-05 15h42.36.651259 -0500,
0,0,0,0,,,,,0,0,0,0,0,0,0,0,,,,,650.6603285000001,,,,,,649.3942329000001,650.6438761999998,,,,,,0,inactive,45.8,667.6440796999996,672.1793502999999,30.500000000000043,4.515,,613.8129073,613.8266218999997,649.3939268000004,650.6441482,655.6438016000002,655.6438079,655.6603212,667.6772007999998,667.6440724000004,,,,,,,,,,,,,,,,,,,,,,,,,,,,,sub-072,45.8,43.8,46.75,COM3,2026-02-05_15h42.11.097,2024_RDpaindiscrimination_maintask,2023.2.3,60.02945044835792,2026-02-05 15h42.36.651259 -0500,
0,0,0,0,,,,,0,0,0,0,1,0,1,0,,,,,672.1939167,,,,,,,,,,,,,1,active,45.8,689.1777364999998,692.9963490999999,36.00000000000005,3.798,,,,,672.1801371000001,677.1774316999999,677.1774376000003,677.1939602000002,689.2107675999996,689.1777290999999,,,,,,,,,,,,,,,,,,,,,,,,,,,,,sub-072,45.8,43.8,46.75,COM3,2026-02-05_15h42.11.097,2024_RDpaindiscrimination_maintask,2023.2.3,60.02945044835792,2026-02-05 15h42.36.651259 -0500,
0,0,0,0,,,,,0,0,0,0,,,,,0,0,0,0,694.9941854999997,,,,,,,,,,,,,2,active,,,,,,,,,,,,,,,,692.9968681999999,694.9777474000002,694.9780506999996,699.9777221000004,699.9777292999997,699.9942266999997,707.9776573999998,707.9776573999998,710.9443621999999,710.9776842000001,710.9776842000001,710.9611457999999,3.25,5.55,325,555,8,1.2,0.75,pic-absent,0,n,0.686365499999738,None,,,,,sub-072,45.8,43.8,46.75,COM3,2026-02-05_15h42.11.097,2024_RDpaindiscrimination_maintask,2023.2.3,60.02945044835792,2026-02-05 15h42.36.651259 -0500,
0,0,0,0,,,,,0,0,0,0,,,,,1,0,1,0,710.9776842000001,,,,,,,,,,,,,3,inactive,,,,,,,,,,,,,,,,,,710.9617558,715.9612158999998,715.9612219999999,715.9777285999999,723.9611224,723.9611224,726.9278741999997,726.9611150999999,726.9611150999999,726.9446878999997,3.61,5.19,361,519,8,1.2,0.75,pic-present,1,m,0.3431092000000717,None,,,,,sub-072,45.8,43.8,46.75,COM3,2026-02-05_15h42.11.097,2024_RDpaindiscrimination_maintask,2023.2.3,60.02945044835792,2026-02-05 15h42.36.651259 -0500,
0,0,0,0,,,,,0,0,0,0,,,,,2,0,2,0,726.9611150999999,,,,,,,,,,,,,0,active,,,,,,,,,,,,,,,,,,726.9451264999998,731.9447128000002,731.9447202000001,731.9612475000004,739.9446662,739.9446662,742.9113889,742.9447019999998,742.9447019999998,742.9281832999995,4.39,4.41,438,441,8,1.2,0.75,pic-present,0,n,1.7387135999997554,None,,,,,sub-072,45.8,43.8,46.75,COM3,2026-02-05_15h42.11.097,2024_RDpaindiscrimination_maintask,2023.2.3,60.02945044835792,2026-02-05 15h42.36.651259 -0500,
0,0,0,0,,,,,0,0,0,0,,,,,3,0,3,0,742.9447019999998,,,,,,,,,,,,,1,inactive,,,,,,,,,,,,,,,,,,742.9286278999998,747.9282160000002,747.9282233000004,747.9447532000004,755.9281786000001,755.9281786000001,758.8948773000002,758.9282178000003,758.9282178000003,758.9116998999998,4.58,4.22,458,422,8,1.2,0.75,pic-absent,0,n,0.8273892000006526,None,,,,,sub-072,45.8,43.8,46.75,COM3,2026-02-05_15h42.11.097,2024_RDpaindiscrimination_maintask,2023.2.3,60.02945044835792,2026-02-05 15h42.36.651259 -0500,
0,0,0,0,,,,,1,0,1,0,0,0,0,0,,,,,760.5450148,,,,,,758.9121711999996,760.5285309999999,,,,,,2,active,45.8,777.5287552,782.6132771000002,48.00000000000004,5.065,,,,,760.5288270000001,765.5284129000001,765.5284192999998,765.5449123999997,777.5617469999997,777.5287476000003,,,,,,,,,,,,,,,,,,,,,,,,,,,,,sub-072,45.8,43.8,46.75,COM3,2026-02-05_15h42.11.097,2024_RDpaindiscrimination_maintask,2023.2.3,60.02945044835792,2026-02-05 15h42.36.651259 -0500,
0,0,0,0,,,,,1,0,1,0,1,0,1,0,,,,,782.6285194000002,,,,,,,,,,,,,3,inactive,45.8,799.6123207999999,802.4814331999996,56.50000000000005,2.849,,,,,782.6140244999997,787.6119491,787.6119560999996,787.6285260000004,799.6453324000004,799.6123137000004,,,,,,,,,,,,,,,,,,,,,,,,,,,,,sub-072,45.8,43.8,46.75,COM3,2026-02-05_15h42.11.097,2024_RDpaindiscrimination_maintask,2023.2.3,60.02945044835792,2026-02-05 15h42.36.651259 -0500,
0,0,0,0,,,,,1,0,1,0,,,,,0,0,0,0,803.8953407999998,,,,,,,,,,,,,0,inactive,,,,,,,,,,,,,,,,802.4819018999997,803.8789642000002,803.8792831000001,808.8788673999998,808.8788745000002,808.8954145999996,816.8788494,816.8788494,819.8455160000003,819.8788089,819.8788089,819.8623021000003,3.36,5.44,336,544,8,1.2,0.75,pic-present,1,m,1.5324989999999161,None,,,,,sub-072,45.8,43.8,46.75,COM3,2026-02-05_15h42.11.097,2024_RDpaindiscrimination_maintask,2023.2.3,60.02945044835792,2026-02-05 15h42.36.651259 -0500,
0,0,0,0,,,,,1,0,1,0,,,,,1,0,1,0,819.8788089,,,,,,,,,,,,,1,active,,,,,,,,,,,,,,,,,,819.8629545000003,824.8623858000001,824.8623926,824.8789057000004,832.8623553999996,832.8623553999996,835.8289875,835.8623203999996,835.8623203999996,835.8458314999998,3.28,5.52,328,552,8,1.2,0.75,pic-absent,0,n,0.3137618000000657,None,,,,,sub-072,45.8,43.8,46.75,COM3,2026-02-05_15h42.11.097,2024_RDpaindiscrimination_maintask,2023.2.3,60.02945044835792,2026-02-05 15h42.36.651259 -0500,
0,0,0,0,,,,,1,0,1,0,,,,,2,0,2,0,835.8623203999996,,,,,,,,,,,,,2,inactive,,,,,,,,,,,,,,,,,,835.8463038,840.8459003999997,840.8459069999999,840.8623318,848.8458543999996,848.8458543999996,851.8125977999998,851.8459038000001,851.8459038000001,851.8294787000004,3.75,5.05,375,505,8,1.2,0.75,pic-absent,0,n,0.38545629999953235,None,,,,,sub-072,45.8,43.8,46.75,COM3,2026-02-05_15h42.11.097,2024_RDpaindiscrimination_maintask,2023.2.3,60.02945044835792,2026-02-05 15h42.36.651259 -0500,
0,0,0,0,,,,,1,0,1,0,,,,,3,0,3,0,851.8459038000001,,,,,,,,,,,,,3,inactive,,,,,,,,,,,,,,,,,,851.8299602999996,856.8293059999996,856.8293129000003,856.8458432999996,864.8293841000004,864.8293841000004,867.7961455000004,867.8294118000003,867.8294118000003,867.8128870999999,4.48,4.32,448,432,8,1.2,0.75,pic-present,1,m,0.2589939999998023,None,,,,,sub-072,45.8,43.8,46.75,COM3,2026-02-05_15h42.11.097,2024_RDpaindiscrimination_maintask,2023.2.3,60.02945044835792,2026-02-05 15h42.36.651259 -0500,
0,0,0,0,,,,,2,0,2,0,0,0,0,0,,,,,869.2793156999996,,,,,,867.8133759000002,869.2629263999997,,,,,,0,inactive,45.8,886.2631322999996,889.8151338999996,55.99999999999988,3.531,,,,,869.2632302000002,874.2628419000002,874.2628493000002,874.2793719000001,886.2962137000004,886.2631246999999,,,,,,,,,,,,,,,,,,,,,,,,,,,,,sub-072,45.8,43.8,46.75,COM3,2026-02-05_15h42.11.097,2024_RDpaindiscrimination_maintask,2023.2.3,60.02945044835792,2026-02-05 15h42.36.651259 -0500,
0,0,0,0,,,,,2,0,2,0,1,0,1,0,,,,,889.8295953999996,,,,,,,,,,,,,1,active,45.8,906.8134726999997,911.5821355999997,56.50000000000005,4.749,,,,,889.8159003999999,894.813075,894.8130818999998,894.8295967000004,906.8464806000002,906.8134657,,,,,,,,,,,,,,,,,,,,,,,,,,,,,sub-072,45.8,43.8,46.75,COM3,2026-02-05_15h42.11.097,2024_RDpaindiscrimination_maintask,2023.2.3,60.02945044835792,2026-02-05 15h42.36.651259 -0500,
0,0,0,0,,,,,2,0,2,0,,,,,0,0,0,0,913.0964740999998,,,,,,,,,,,,,2,active,,,,,,,,,,,,,,,,911.5826347000002,913.0800493999996,913.0803649,918.0800679000004,918.0800737,918.0966226999999,926.0799408000003,926.0799408000003,929.0466399999996,929.0799785999998,929.0799785999998,929.0635584000001,3.79,5.01,379,501,8,1.2,0.75,pic-present,1,m,0.4995408000004318,None,,,,,sub-072,45.8,43.8,46.75,COM3,2026-02-05_15h42.11.097,2024_RDpaindiscrimination_maintask,2023.2.3,60.02945044835792,2026-02-05 15h42.36.651259 -0500,
0,0,0,0,,,,,2,0,2,0,,,,,1,0,1,0,929.0799785999998,,,,,,,,,,,,,3,inactive,,,,,,,,,,,,,,,,,,929.0640946000003,934.0634953999997,934.0635014999998,934.0800314999997,942.0635370999998,942.0635370999998,945.0301546000001,945.0634882000004,945.0634882000004,945.0470397999998,3.92,4.88,392,488,8,1.2,0.75,pic-absent,0,n,0.3557347000005393,None,,,,,sub-072,45.8,43.8,46.75,COM3,2026-02-05_15h42.11.097,2024_RDpaindiscrimination_maintask,2023.2.3,60.02945044835792,2026-02-05 15h42.36.651259 -0500,
0,0,0,0,,,,,2,0,2,0,,,,,2,0,2,0,945.0634882000004,,,,,,,,,,,,,0,inactive,,,,,,,,,,,,,,,,,,945.0475014000003,950.0470009999999,950.0470078999997,950.0635444,958.0470071,958.0470071,961.0138043999996,961.0470819000002,961.0470819000002,961.0305534999998,4.52,4.28,451,428,8,1.2,0.75,pic-present,1,m,2.25694619999922,None,,,,,sub-072,45.8,43.8,46.75,COM3,2026-02-05_15h42.11.097,2024_RDpaindiscrimination_maintask,2023.2.3,60.02945044835792,2026-02-05 15h42.36.651259 -0500,
0,0,0,0,,,,,2,0,2,0,,,,,3,0,3,0,961.0470819000002,,,,,,,,,,,,,1,active,,,,,,,,,,,,,,,,,,961.0310110999999,966.0305503,966.030557,966.0471243000002,974.0305532000002,974.0305532000002,976.9972515999998,977.0305466,977.0305466,977.0140973999996,3.62,5.18,362,518,8,1.2,0.75,pic-present,0,n,1.8970062000007601,None,,,,,sub-072,45.8,43.8,46.75,COM3,2026-02-05_15h42.11.097,2024_RDpaindiscrimination_maintask,2023.2.3,60.02945044835792,2026-02-05 15h42.36.651259 -0500,
0,0,0,0,,,,,3,0,3,0,0,0,0,0,,,,,978.7805601999999,,,,,,977.0145733999998,978.764099,,,,,,2,active,45.8,995.7641360999996,1000.2497402999998,51.49999999999997,4.466,,,,,978.7643809000001,983.7641176999996,983.7641234000002,983.7806545000003,,995.7641279999998,,,,,,,,,,,,,,,,,,,,,,,,,,,,,sub-072,45.8,43.8,46.75,COM3,2026-02-05_15h42.11.097,2024_RDpaindiscrimination_maintask,2023.2.3,60.02945044835792,2026-02-05 15h42.36.651259 -0500,
0,0,0,0,,,,,3,0,3,0,1,0,1,0,,,,,1000.2641875999998,,,,,,,,,,,,,3,inactive,45.8,1017.2479941000001,1021.1493956000004,61.99999999999985,3.882,,,,,1000.2504945999999,1005.2476254000003,1005.2476312999997,1005.2642378,1017.2810220000001,1017.2479873000002,,,,,,,,,,,,,,,,,,,,,,,,,,,,,sub-072,45.8,43.8,46.75,COM3,2026-02-05_15h42.11.097,2024_RDpaindiscrimination_maintask,2023.2.3,60.02945044835792,2026-02-05 15h42.36.651259 -0500,
0,0,0,0,,,,,3,0,3,0,,,,,0,0,0,0,1022.5644171000004,,,,,,,,,,,,,0,inactive,,,,,,,,,,,,,,,,1021.1499381000003,1022.5480281,1022.5483222000003,1027.5479618999998,1027.5479692,1027.5644315,1035.5478457999998,1035.5478457999998,1038.5145524999998,1038.5478906999997,1038.5478906999997,1038.5314122999998,3.67,5.13,367,513,8,1.2,0.75,pic-absent,0,n,0.38771170000018174,None,,,,,sub-072,45.8,43.8,46.75,COM3,2026-02-05_15h42.11.097,2024_RDpaindiscrimination_maintask,2023.2.3,60.02945044835792,2026-02-05 15h42.36.651259 -0500,
0,0,0,0,,,,,3,0,3,0,,,,,1,0,1,0,1038.5478906999997,,,,,,,,,,,,,1,active,,,,,,,,,,,,,,,,,,1038.5319484000001,1043.531492,1043.5314989999997,1043.5480270999997,1051.5314476000003,1051.5314476000003,1054.4980834999997,1054.5314115,1054.5314115,1054.5148849999996,3.85,4.95,385,495,8,1.2,0.75,pic-present,1,m,0.2960834999994404,None,,,,,sub-072,45.8,43.8,46.75,COM3,2026-02-05_15h42.11.097,2024_RDpaindiscrimination_maintask,2023.2.3,60.02945044835792,2026-02-05 15h42.36.651259 -0500,
0,0,0,0,,,,,3,0,3,0,,,,,2,0,2,0,1054.5314115,,,,,,,,,,,,,2,active,,,,,,,,,,,,,,,,,,1054.5153431999997,1059.5149579999998,1059.5149650000003,1059.5314603999996,1067.5149461,1067.5149461,1070.4815873999996,1070.5149138999996,1070.5149138999996,1070.4984395000001,3.41,5.39,341,539,8,1.2,0.75,pic-absent,0,n,0.38499080000019603,None,,,,,sub-072,45.8,43.8,46.75,COM3,2026-02-05_15h42.11.097,2024_RDpaindiscrimination_maintask,2023.2.3,60.02945044835792,2026-02-05 15h42.36.651259 -0500,
0,0,0,0,,,,,3,0,3,0,,,,,3,0,3,0,1070.5149138999996,,,,,,,,,,,,,3,active,,,,,,,,,,,,,,,,,,1070.4988758999998,1075.4984879000003,1075.4984948000001,1075.5149978,1083.4984671000002,1083.4984671000002,1086.4651594999996,1086.4984403999997,1086.4984403999997,1086.4820314999997,3.83,4.97,383,497,8,1.2,0.75,pic-absent,0,n,1.1489602000001469,None,,,,,sub-072,45.8,43.8,46.75,COM3,2026-02-05_15h42.11.097,2024_RDpaindiscrimination_maintask,2023.2.3,60.02945044835792,2026-02-05 15h42.36.651259 -0500,
1,0,1,0,0,0,0,0,,,,,,,,,,,,,1114.0654545999996,,,,1112.5491411000003,1113.3656282000002,1113.3656355000003,1114.0490298000004,1114.0493282999996,1119.0489294,1119.0489360000001,1119.0654532999997,1131.0493021000002,0,inactive,45.8,1131.0495013,1134.5010300000004,55.99999999999998,3.427,1131.0821905000003,,,,,,,,,,,,,,,,,,,,,,,,,,,,,,,,,,1086.4824919000002,1112.5490102000003,,,sub-072,45.8,43.8,46.75,COM3,2026-02-05_15h42.11.097,2024_RDpaindiscrimination_maintask,2023.2.3,60.02945044835792,2026-02-05 15h42.36.651259 -0500,
1,0,1,0,1,0,1,0,,,,,,,,,,,,,1134.5157631000002,,,,,,,,1134.5019340999997,1139.4991548999997,1139.4991615999998,1139.5156958999996,1151.4995470000003,1,inactive,45.8,1151.4996840000003,1155.5355397000003,34.50000000000016,4.015,1151.5325556999996,,,,,,,,,,,,,,,,,,,,,,,,,,,,,,,,,,,,,,sub-072,45.8,43.8,46.75,COM3,2026-02-05_15h42.11.097,2024_RDpaindiscrimination_maintask,2023.2.3,60.02945044835792,2026-02-05 15h42.36.651259 -0500,
1,0,1,0,2,0,2,0,,,,,,,,,,,,,1155.5493284000004,,,,,,,,1155.5362839,1160.5327183999998,1160.5327243000002,1160.5493034,1172.5332286000003,2,active,43.8,1172.5333670999999,1177.7177658,30.0,5.164,1172.5661146000002,,,,,,,,,,,,,,,,,,,,,,,,,,,,,,,,,,,,,,sub-072,45.8,43.8,46.75,COM3,2026-02-05_15h42.11.097,2024_RDpaindiscrimination_maintask,2023.2.3,60.02945044835792,2026-02-05 15h42.36.651259 -0500,
1,0,1,0,3,0,3,0,,,,,,,,,,,,,1177.7329047000003,,,,,,,,1177.7185305000003,1182.7163102000004,1182.716316,1182.7328636000002,1194.7166429,3,inactive,45.8,1194.7167762,1198.0845785000001,64.49999999999986,3.348,1194.7497520999996,,,,,,,,,,,,,,,,,,,,,,,,,,,,,,,,,,,,,,sub-072,45.8,43.8,46.75,COM3,2026-02-05_15h42.11.097,2024_RDpaindiscrimination_maintask,2023.2.3,60.02945044835792,2026-02-05 15h42.36.651259 -0500,
1,0,1,0,4,0,4,0,,,,,,,,,,,,,1198.0998567999995,,,,,,,,1198.0853165999997,1203.0831873999996,1203.0831932,1203.0997244999999,1215.0835026000004,0,active,43.8,1215.0836467999998,1217.7515658000002,6.500000000000059,2.648,1215.1165541999999,,,,,,,,,,,,,,,,,,,,,,,,,,,,,,,,,,,,,,sub-072,45.8,43.8,46.75,COM3,2026-02-05_15h42.11.097,2024_RDpaindiscrimination_maintask,2023.2.3,60.02945044835792,2026-02-05 15h42.36.651259 -0500,
1,0,1,0,5,0,5,0,,,,,,,,,,,,,1217.7666424,,,,,,,,1217.7523945000003,1222.7501492000001,1222.7501552000003,1222.7666834000001,1234.7503834999998,1,active,43.8,1234.7505235999997,1238.7686551999996,9.000000000000071,3.998,1234.7834077999996,,,,,,,,,,,,,,,,,,,,,,,,,,,,,,,,,,,,,,sub-072,45.8,43.8,46.75,COM3,2026-02-05_15h42.11.097,2024_RDpaindiscrimination_maintask,2023.2.3,60.02945044835792,2026-02-05 15h42.36.651259 -0500,
1,0,1,0,6,0,6,0,,,,,,,,,,,,,1238.7834995000003,,,,,,,,1238.7694067000002,1243.766998,1243.7670040000003,1243.7835111000004,1255.7672974999996,2,inactive,45.8,1255.7674336,1258.4521357000003,55.000000000000085,2.664,1255.8003758000004,,,,,,,,,,,,,,,,,,,,,,,,,,,,,,,,,,,,,,sub-072,45.8,43.8,46.75,COM3,2026-02-05_15h42.11.097,2024_RDpaindiscrimination_maintask,2023.2.3,60.02945044835792,2026-02-05 15h42.36.651259 -0500,
1,0,1,0,7,0,7,0,,,,,,,,,,,,,1258.4670677000004,,,,,,,,1258.4528794999997,1263.4505772000002,1263.4505832000004,1263.4671267000003,1275.4509171999998,3,active,43.8,1275.4510575000004,1278.1367964,7.0000000000000595,2.666,1275.4839467000002,,,,,,,,,,,,,,,,,,,,,,,,,,,,,,,,,,,,,,sub-072,45.8,43.8,46.75,COM3,2026-02-05_15h42.11.097,2024_RDpaindiscrimination_maintask,2023.2.3,60.02945044835792,2026-02-05 15h42.36.651259 -0500,
1,0,1,0,8,0,8,0,,,,,,,,,,,,,1278.1507076999997,,,,,,,,1278.1376214000002,1283.1341104000003,1283.1341168999998,1283.1505968000001,1295.1344539000002,0,active,43.8,1295.1345929,1301.1856183,7.000000000000131,6.031,1295.1674524,,,,,,,,,,,,,,,,,,,,,,,,,,,,,,,,,,,,,,sub-072,45.8,43.8,46.75,COM3,2026-02-05_15h42.11.097,2024_RDpaindiscrimination_maintask,2023.2.3,60.02945044835792,2026-02-05 15h42.36.651259 -0500,
1,0,1,0,9,0,9,0,,,,,,,,,,,,,1301.2009012999997,,,,,,,,1301.1864197000004,1306.1843842999997,1306.1843904999996,1306.2008472999996,1318.1847288999998,1,inactive,45.8,1318.1848701,1321.5525642000002,48.000000000000114,3.347,1318.2177134000003,,,,,,,,,,,,,,,,,,,,,,,,,,,,,,,,,,,,,,sub-072,45.8,43.8,46.75,COM3,2026-02-05_15h42.11.097,2024_RDpaindiscrimination_maintask,2023.2.3,60.02945044835792,2026-02-05 15h42.36.651259 -0500,
1,0,1,0,10,0,10,0,,,,,,,,,,,,,1321.5677579000003,,,,,,,,1321.5533733000002,1326.5513278999997,1326.5513342000004,1326.5678501000002,1338.5516183999998,2,active,43.8,1338.5517529999997,1342.1533667000003,19.500000000000078,3.582,1338.5846439999996,,,,,,,,,,,,,,,,,,,,,,,,,,,,,,,,,,,,,,sub-072,45.8,43.8,46.75,COM3,2026-02-05_15h42.11.097,2024_RDpaindiscrimination_maintask,2023.2.3,60.02945044835792,2026-02-05 15h42.36.651259 -0500,
1,0,1,0,11,0,11,0,,,,,,,,,,,,,1342.1679553000004,,,,,,,,1342.1543689999999,1347.1515600000002,1347.1515661000003,1347.1680810999997,1359.1517286999997,3,inactive,45.8,1359.1518775000004,1361.3529332999997,60.00000000000007,2.181,1359.1847637,,,,,,,,,,,,,,,,,,,,,,,,,,,,,,,,,,,,,,sub-072,45.8,43.8,46.75,COM3,2026-02-05_15h42.11.097,2024_RDpaindiscrimination_maintask,2023.2.3,60.02945044835792,2026-02-05 15h42.36.651259 -0500,
1,0,1,0,12,0,12,0,,,,,,,,,,,,,1361.3682306,,,,,,,,1361.3539369999999,1366.3516780999998,1366.3516837999996,1366.3682040000003,1378.3520952999997,0,inactive,45.8,1378.3522311999996,1381.1703134999998,55.99999999999988,2.798,1378.3849745999996,,,,,,,,,,,,,,,,,,,,,,,,,,,,,,,,,,,,,,sub-072,45.8,43.8,46.75,COM3,2026-02-05_15h42.11.097,2024_RDpaindiscrimination_maintask,2023.2.3,60.02945044835792,2026-02-05 15h42.36.651259 -0500,
1,0,1,0,13,0,13,0,,,,,,,,,,,,,1381.1851305999999,,,,,,,,1381.1710801999998,1386.1686593000004,1386.1686657999999,1386.1851656999997,1398.1688848000003,1,active,43.8,1398.1690216999996,1401.4048076999998,23.50000000000002,3.215,1398.2019264,,,,,,,,,,,,,,,,,,,,,,,,,,,,,,,,,,,,,,sub-072,45.8,43.8,46.75,COM3,2026-02-05_15h42.11.097,2024_RDpaindiscrimination_maintask,2023.2.3,60.02945044835792,2026-02-05 15h42.36.651259 -0500,
1,0,1,0,14,0,14,0,,,,,,,,,,,,,1401.4185954000004,,,,,,,,1401.4055700999997,1406.4021792000003,1406.4021853000004,1406.4187435000003,1418.4025327,2,inactive,45.8,1418.4026734999998,1421.8539302999998,54.49999999999996,3.43,1418.4354499,,,,,,,,,,,,,,,,,,,,,,,,,,,,,,,,,,,,,,sub-072,45.8,43.8,46.75,COM3,2026-02-05_15h42.11.097,2024_RDpaindiscrimination_maintask,2023.2.3,60.02945044835792,2026-02-05 15h42.36.651259 -0500,
1,0,1,0,15,0,15,0,,,,,,,,,,,,,1421.8689571000004,,,,,,,,1421.8547216999996,1426.8524549000003,1426.8524616000004,1426.8689610000001,1438.8527511000002,3,active,43.8,1438.8528887000002,1442.2040223000004,39.00000000000004,3.331,1438.8857538000002,,,,,,,,,,,,,,,,,,,,,,,,,,,,,,,,,,,,,,sub-072,45.8,43.8,46.75,COM3,2026-02-05_15h42.11.097,2024_RDpaindiscrimination_maintask,2023.2.3,60.02945044835792,2026-02-05 15h42.36.651259 -0500,
1,0,1,0,,,,,0,0,0,0,0,0,0,0,,,,,1446.3524341000002,,,,,,1445.9529567,1446.3359904,,,,,,0,active,45.8,1463.3362601999997,1467.0712391999996,36.00000000000002,3.715,,1442.2046621999998,1442.2191205999998,1445.9526388000004,1446.3362619999998,1451.3360312000004,1451.3360371999997,1451.352481,1463.3692577000002,1463.3362516999996,,,,,,,,,,,,,,,,,,,,,,,,,,,,,sub-072,45.8,43.8,46.75,COM3,2026-02-05_15h42.11.097,2024_RDpaindiscrimination_maintask,2023.2.3,60.02945044835792,2026-02-05 15h42.36.651259 -0500,
1,0,1,0,,,,,0,0,0,0,1,0,1,0,,,,,1467.0860769,,,,,,,,,,,,,1,inactive,45.8,1484.0698037000002,1489.5718573000004,48.99999999999991,5.482,,,,,1467.0719972999996,1472.0695751000003,1472.0695813000002,1472.0861016999997,1484.1028157,1484.0697965,,,,,,,,,,,,,,,,,,,,,,,,,,,,,sub-072,45.8,43.8,46.75,COM3,2026-02-05_15h42.11.097,2024_RDpaindiscrimination_maintask,2023.2.3,60.02945044835792,2026-02-05 15h42.36.651259 -0500,
1,0,1,0,,,,,0,0,0,0,,,,,0,0,0,0,1490.6195538000002,,,,,,,,,,,,,2,inactive,,,,,,,,,,,,,,,,1489.5723613999999,1490.6031535000002,1490.6034479999998,1495.6030461999999,1495.6030526000004,1495.6195739000004,1503.6030268000004,1503.6030268000004,1506.5697017000002,1506.6030602,1506.6030602,1506.5865401,3.57,5.23,357,523,8,1.2,0.75,pic-present,1,m,0.35999510000056034,None,,,,,sub-072,45.8,43.8,46.75,COM3,2026-02-05_15h42.11.097,2024_RDpaindiscrimination_maintask,2023.2.3,60.02945044835792,2026-02-05 15h42.36.651259 -0500,
1,0,1,0,,,,,0,0,0,0,,,,,1,0,1,0,1506.6030602,,,,,,,,,,,,,3,active,,,,,,,,,,,,,,,,,,1506.5871095000002,1511.5865783,1511.5865848000003,1511.6031179000001,1519.5866273000001,1519.5866273000001,1522.5533078999997,1522.5866441999997,1522.5866441999997,1522.5700845000001,4.56,4.24,455,424,8,1.2,0.75,pic-absent,0,n,0.31619339999997464,None,,,,,sub-072,45.8,43.8,46.75,COM3,2026-02-05_15h42.11.097,2024_RDpaindiscrimination_maintask,2023.2.3,60.02945044835792,2026-02-05 15h42.36.651259 -0500,
1,0,1,0,,,,,0,0,0,0,,,,,2,0,2,0,1522.5866441999997,,,,,,,,,,,,,0,inactive,,,,,,,,,,,,,,,,,,1522.5705790000002,1527.5701729000002,1527.5701792999998,1527.5867067999998,1535.570157,1535.570157,1538.5367351000004,1538.5701609999996,1538.5701609999996,1538.5536590000002,3.77,5.03,377,503,8,1.2,0.75,pic-absent,0,n,0.4766665999995894,None,,,,,sub-072,45.8,43.8,46.75,COM3,2026-02-05_15h42.11.097,2024_RDpaindiscrimination_maintask,2023.2.3,60.02945044835792,2026-02-05 15h42.36.651259 -0500,
1,0,1,0,,,,,0,0,0,0,,,,,3,0,3,0,1538.5701609999996,,,,,,,,,,,,,1,active,,,,,,,,,,,,,,,,,,1538.5541509000004,1543.5536924999997,1543.5536988000003,1543.5702142,1551.5536777999996,1551.5536777999996,1554.5202637000002,1554.5535982000001,1554.5535982000001,1554.5371691,3.44,5.36,344,536,8,1.2,0.75,pic-present,1,m,0.30588579999948706,None,,,,,sub-072,45.8,43.8,46.75,COM3,2026-02-05_15h42.11.097,2024_RDpaindiscrimination_maintask,2023.2.3,60.02945044835792,2026-02-05 15h42.36.651259 -0500,
1,0,1,0,,,,,1,0,1,0,0,0,0,0,,,,,1554.9703424,,,,,,1554.5376429999997,1554.9538759999996,,,,,,2,inactive,45.8,1571.9541909999998,1575.7564877000004,57.000000000000014,3.782,,,,,1554.9542241,1559.9538561999998,1559.9538648999996,1559.970327,1571.9871924,1571.9541822,,,,,,,,,,,,,,,,,,,,,,,,,,,,,sub-072,45.8,43.8,46.75,COM3,2026-02-05_15h42.11.097,2024_RDpaindiscrimination_maintask,2023.2.3,60.02945044835792,2026-02-05 15h42.36.651259 -0500,
1,0,1,0,,,,,1,0,1,0,1,0,1,0,,,,,1575.7706804999998,,,,,,,,,,,,,3,active,45.8,1592.7544188000002,1596.5390814000002,56.49999999999987,3.764,,,,,1575.7572241999997,1580.754038,1580.7540451000004,1580.7705925,1592.7874295000001,1592.7544116,,,,,,,,,,,,,,,,,,,,,,,,,,,,,sub-072,45.8,43.8,46.75,COM3,2026-02-05_15h42.11.097,2024_RDpaindiscrimination_maintask,2023.2.3,60.02945044835792,2026-02-05 15h42.36.651259 -0500,
1,0,1,0,,,,,1,0,1,0,,,,,0,0,0,0,1598.1041036999995,,,,,,,,,,,,,0,inactive,,,,,,,,,,,,,,,,1596.5396093,1598.0877309999996,1598.0880508999999,1603.0877415000004,1603.0877478000002,1603.1041692,1611.0877042000002,1611.0877042000002,1614.0542954000002,1614.0876314999996,1614.0876314999996,1614.0711124,4.46,4.34,446,434,8,1.2,0.75,pic-absent,0,n,0.3717631999998048,None,,,,,sub-072,45.8,43.8,46.75,COM3,2026-02-05_15h42.11.097,2024_RDpaindiscrimination_maintask,2023.2.3,60.02945044835792,2026-02-05 15h42.36.651259 -0500,
1,0,1,0,,,,,1,0,1,0,,,,,1,0,1,0,1614.0876314999996,,,,,,,,,,,,,1,active,,,,,,,,,,,,,,,,,,1614.0716413999999,1619.0711946000001,1619.0712012000004,1619.0877910999998,1627.0711600000004,1627.0711600000004,1630.0378382999997,1630.0711389999997,1630.0711389999997,1630.0546227000004,3.43,5.37,343,537,8,1.2,0.75,pic-present,1,m,0.267686500000309,None,,,,,sub-072,45.8,43.8,46.75,COM3,2026-02-05_15h42.11.097,2024_RDpaindiscrimination_maintask,2023.2.3,60.02945044835792,2026-02-05 15h42.36.651259 -0500,
1,0,1,0,,,,,1,0,1,0,,,,,2,0,2,0,1630.0711389999997,,,,,,,,,,,,,2,inactive,,,,,,,,,,,,,,,,,,1630.0550857999997,1635.0546660999998,1635.0546726000002,1635.0712421999997,1643.0546906,1643.0546906,1646.0213826,1646.0547014000003,1646.0547014000003,1646.0382493999996,3.52,5.28,352,528,8,1.2,0.75,pic-present,1,m,0.28010160000030737,None,,,,,sub-072,45.8,43.8,46.75,COM3,2026-02-05_15h42.11.097,2024_RDpaindiscrimination_maintask,2023.2.3,60.02945044835792,2026-02-05 15h42.36.651259 -0500,
1,0,1,0,,,,,1,0,1,0,,,,,3,0,3,0,1646.0547014000003,,,,,,,,,,,,,3,inactive,,,,,,,,,,,,,,,,,,1646.0387004000004,1651.0381773999998,1651.0381839000001,1651.0547538,1659.0382037999998,1659.0382037999998,1662.0048254000003,1662.0382067,1662.0382067,1662.0216491,3.83,4.97,383,497,8,1.2,0.75,pic-absent,0,n,0.3446358999999575,None,,,,,sub-072,45.8,43.8,46.75,COM3,2026-02-05_15h42.11.097,2024_RDpaindiscrimination_maintask,2023.2.3,60.02945044835792,2026-02-05 15h42.36.651259 -0500,
1,0,1,0,,,,,2,0,2,0,0,0,0,0,,,,,1663.12154,,,,,,1662.0221321999998,1663.1051656,,,,,,0,active,45.8,1680.1054391999996,1682.9909936000004,51.99999999999989,2.865,,,,,1663.1054722,1668.105122,1668.1051291000003,1668.1215627000001,1680.1384271999996,1680.1054309,,,,,,,,,,,,,,,,,,,,,,,,,,,,,sub-072,45.8,43.8,46.75,COM3,2026-02-05_15h42.11.097,2024_RDpaindiscrimination_maintask,2023.2.3,60.02945044835792,2026-02-05 15h42.36.651259 -0500,
1,0,1,0,,,,,2,0,2,0,1,0,1,0,,,,,1683.0051547000003,,,,,,,,,,,,,1,inactive,45.8,1699.9888950000004,1702.5906880000002,42.49999999999993,2.582,,,,,1682.991803,1687.9885917000001,1687.9885984000002,1688.0051119,1700.0219752000003,1699.9888872000001,,,,,,,,,,,,,,,,,,,,,,,,,,,,,sub-072,45.8,43.8,46.75,COM3,2026-02-05_15h42.11.097,2024_RDpaindiscrimination_maintask,2023.2.3,60.02945044835792,2026-02-05 15h42.36.651259 -0500,
1,0,1,0,,,,,2,0,2,0,,,,,0,0,0,0,1703.9719901999997,,,,,,,,,,,,,2,active,,,,,,,,,,,,,,,,1702.5912225000002,1703.9555129,1703.9558317,1708.9554783000003,1708.9554850000004,1708.9720187000003,1716.9554894000003,1716.9554894000003,1719.9221828999998,1719.9554700999997,1719.9554700999997,1719.9389707999999,4.47,4.33,447,433,8,1.2,0.75,pic-present,1,m,0.2759937999999238,None,,,,,sub-072,45.8,43.8,46.75,COM3,2026-02-05_15h42.11.097,2024_RDpaindiscrimination_maintask,2023.2.3,60.02945044835792,2026-02-05 15h42.36.651259 -0500,
1,0,1,0,,,,,2,0,2,0,,,,,1,0,1,0,1719.9554700999997,,,,,,,,,,,,,3,inactive,,,,,,,,,,,,,,,,,,1719.9395115999996,1724.9390173000002,1724.9390242,1724.9555268000004,1732.9389500999996,1732.9389500999996,1735.9056921000001,1735.9389804000002,1735.9389804000002,1735.9225083000001,4.44,4.36,444,436,8,1.2,0.75,pic-absent,0,n,0.6403074999998353,None,,,,,sub-072,45.8,43.8,46.75,COM3,2026-02-05_15h42.11.097,2024_RDpaindiscrimination_maintask,2023.2.3,60.02945044835792,2026-02-05 15h42.36.651259 -0500,
1,0,1,0,,,,,2,0,2,0,,,,,2,0,2,0,1735.9389804000002,,,,,,,,,,,,,0,active,,,,,,,,,,,,,,,,,,1735.9229838,1740.9225643999998,1740.9225699999997,1740.9390835000004,1748.9225386999997,1748.9225386999997,1751.8891187,1751.9224573000001,1751.9224573000001,1751.9059580000003,3.3,5.5,330,550,8,1.2,0.75,pic-absent,0,n,0.3523256999997102,None,,,,,sub-072,45.8,43.8,46.75,COM3,2026-02-05_15h42.11.097,2024_RDpaindiscrimination_maintask,2023.2.3,60.02945044835792,2026-02-05 15h42.36.651259 -0500,
1,0,1,0,,,,,2,0,2,0,,,,,3,0,3,0,1751.9224573000001,,,,,,,,,,,,,1,inactive,,,,,,,,,,,,,,,,,,1751.9064139000002,1756.9060593000004,1756.9060659999996,1756.9225881000002,1764.9060482000004,1764.9060482000004,1767.8727710000003,1767.9060722000004,1767.9060722000004,1767.8895628999999,3.89,4.91,389,491,8,1.2,0.75,pic-present,1,m,0.26055820000055974,None,,,,,sub-072,45.8,43.8,46.75,COM3,2026-02-05_15h42.11.097,2024_RDpaindiscrimination_maintask,2023.2.3,60.02945044835792,2026-02-05 15h42.36.651259 -0500,
1,0,1,0,,,,,3,0,3,0,0,0,0,0,,,,,1768.2393627000001,,,,,,1767.890066,1768.2229727000004,,,,,,2,inactive,45.8,1785.2232341999998,1787.5081053000004,57.499999999999936,2.265,,,,,1768.2232492000003,1773.2228949999999,1773.2229017,1773.2394851,1785.2562183,1785.2232264000004,,,,,,,,,,,,,,,,,,,,,,,,,,,,,sub-072,45.8,43.8,46.75,COM3,2026-02-05_15h42.11.097,2024_RDpaindiscrimination_maintask,2023.2.3,60.02945044835792,2026-02-05 15h42.36.651259 -0500,
1,0,1,0,,,,,3,0,3,0,1,0,1,0,,,,,1787.5229769999996,,,,,,,,,,,,,3,active,45.8,1804.5068134000003,1807.8763533000001,59.99999999999993,3.349,,,,,1787.5088519,1792.5064407999998,1792.5064470999996,1792.5230843,1804.5397854000003,1804.5068062999999,,,,,,,,,,,,,,,,,,,,,,,,,,,,,sub-072,45.8,43.8,46.75,COM3,2026-02-05_15h42.11.097,2024_RDpaindiscrimination_maintask,2023.2.3,60.02945044835792,2026-02-05 15h42.36.651259 -0500,
1,0,1,0,,,,,3,0,3,0,,,,,0,0,0,0,1809.2064305000004,,,,,,,,,,,,,0,active,,,,,,,,,,,,,,,,1807.8768888000004,1809.1900365000001,1809.1903576000004,1814.1899777999997,1814.1899847000004,1814.2064991999996,1822.1900275999997,1822.1900275999997,1825.1567300999995,1825.1900898000004,1825.1900898000004,1825.1735011,3.64,5.16,364,516,8,1.2,0.75,pic-absent,0,n,0.501297899999372,None,,,,,sub-072,45.8,43.8,46.75,COM3,2026-02-05_15h42.11.097,2024_RDpaindiscrimination_maintask,2023.2.3,60.02945044835792,2026-02-05 15h42.36.651259 -0500,
1,0,1,0,,,,,3,0,3,0,,,,,1,0,1,0,1825.1900898000004,,,,,,,,,,,,,1,inactive,,,,,,,,,,,,,,,,,,1825.1740275000002,1830.1734726000004,1830.1734794000004,1830.1899974999997,1838.1736013,1838.1736013,1841.1402509,1841.1735679000003,1841.1735679000003,1841.1571298,4.37,4.43,437,443,8,1.2,0.75,pic-present,1,m,0.2580203999996229,None,,,,,sub-072,45.8,43.8,46.75,COM3,2026-02-05_15h42.11.097,2024_RDpaindiscrimination_maintask,2023.2.3,60.02945044835792,2026-02-05 15h42.36.651259 -0500,
1,0,1,0,,,,,3,0,3,0,,,,,2,0,2,0,1841.1735679000003,,,,,,,,,,,,,2,active,,,,,,,,,,,,,,,,,,1841.1575642999996,1846.1569897,1846.1569971,1846.1735141,1854.1569324000002,1854.1569324000002,1857.1236288999999,1857.1569661000003,1857.1569661000003,1857.1404501999996,3.27,5.53,327,553,8,1.2,0.75,pic-present,1,m,0.2821673999997074,None,,,,,sub-072,45.8,43.8,46.75,COM3,2026-02-05_15h42.11.097,2024_RDpaindiscrimination_maintask,2023.2.3,60.02945044835792,2026-02-05 15h42.36.651259 -0500,
1,0,1,0,,,,,3,0,3,0,,,,,3,0,3,0,1857.1569661000003,,,,,,,,,,,,,3,active,,,,,,,,,,,,,,,,,,1857.1409366999997,1862.1406071000001,1862.1406139,1862.1571408999998,1870.1405659000002,1870.1405659000002,1873.1072575999997,1873.1406054,1873.1406054,1873.1240828,3.76,5.04,376,504,8,1.2,0.75,pic-absent,0,n,0.3184658000000127,None,,,,,sub-072,45.8,43.8,46.75,COM3,2026-02-05_15h42.11.097,2024_RDpaindiscrimination_maintask,2023.2.3,60.02945044835792,2026-02-05 15h42.36.651259 -0500,
,,,,,,,,,,,,,,,,,,,,,,,,,,,,,,,,,,,,,,,,,,,,,,,,,,,,,,,,,,,,,,,,,,,,,,,,,,1873.1245041000002,1874.4574423000004,1874.4574610999998,1884.4573585999997,,,,,,,,,,,
