trials.thisRepN,trials.thisTrialN,trials.thisN,trials.thisIndex,loop_test.thisRepN,loop_test.thisTrialN,loop_test.thisN,loop_test.thisIndex,loop_eval_discri.thisRepN,loop_eval_discri.thisTrialN,loop_eval_discri.thisN,loop_eval_discri.thisIndex,loop_eval.thisRepN,loop_eval.thisTrialN,loop_eval.thisN,loop_eval.thisIndex,loop_discri.thisRepN,loop_discri.thisTrialN,loop_discri.thisN,loop_discri.thisIndex,thisRow.t,notes,Set_up.started,Set_up.stopped,electrode_check.started,electrode_check.stopped,instructions_eval.started,instructions_eval.stopped,pause_5_test.started,pause_5_test.stopped,Phase_Test.started,thermode_locali.started,Phase_Test.stopped,loca_thermode,condition,temp_trial_sent,eval_douleur.started,eval_douleur.stopped,ratingScale.response,ratingScale.rt,thermode_locali.stopped,Fin_test.started,text.started,Fin_test.stopped,pause_5_EVA.started,pause_5_EVA.stopped,tâche_EVA.started,thermode_locali_EVA.started,tâche_EVA.stopped,thermode_locali_EVA.stopped,instructions_discrim.started,instructions_discrim.stopped,pause_5_pic.started,pause_5_pic.stopped,tâche_PIC.started,thermode_locali_pic.started,percu_or.started,responser.started,thermode_locali_pic.stopped,percu_or.stopped,responser.stopped,tâche_PIC.stopped,dur_plateau1,dur_plateau2,dur_plateau1_sent,dur_plateau2_sent,start_plateau_2_resp,dur_pic,dur_rise,pic_presence,pic_response,discrimin_resp.keys,discrimin_resp.rt,discrimin_resp.duration,break_entre_bloc.started,break_entre_bloc.stopped,merci.started,merci.stopped,participant,temp_flat,temp_active,temp_pic_set,com_thermode,date,expName,psychopyVersion,frameRate,expStart,
0,0,0,0,0,0,0,0,,,,,,,,,,,,,223.53743899999972,,0.001598099999682745,217.57096379999984,217.57135870000002,218.42095129999962,218.42095849999987,223.50436219999938,223.5046542,228.52086869999948,228.52087419999953,228.53994919999968,240.52099169999929,0,active,41.7,240.52122280000003,245.87362949999988,17.000000000000078,5.327,,,,,,,,,,,,,,,,,,,,,,,,,,,,,,,,,,,,,,,sub-060,43.8,41.7,44.73,COM3,2025-07-21_10h27.52.891,2024_RDpaindiscrimination_maintask,2023.2.3,60.011726291313636,2025-07-21 10h28.14.676972 -0400,
0,0,0,0,1,0,1,0,,,,,,,,,,,,,245.88770169999952,,,,,,,,245.87453060000007,250.8712644999996,250.87127059999966,250.88773700000002,262.87144629999966,1,inactive,43.8,262.8715945999993,266.43973259999984,21.500000000000004,3.548,262.9045520999998,,,,,,,,,,,,,,,,,,,,,,,,,,,,,,,,,,,,,,sub-060,43.8,41.7,44.73,COM3,2025-07-21_10h27.52.891,2024_RDpaindiscrimination_maintask,2023.2.3,60.011726291313636,2025-07-21 10h28.14.676972 -0400,
0,0,0,0,2,0,2,0,,,,,,,,,,,,,266.4545884999998,,,,,,,,266.4405092999996,271.43815429999995,271.4381599999997,271.4546593999994,283.4383388999995,2,active,41.7,283.4384713999998,288.04099439999936,18.500000000000007,4.582,283.4714888999997,,,,,,,,,,,,,,,,,,,,,,,,,,,,,,,,,,,,,,sub-060,43.8,41.7,44.73,COM3,2025-07-21_10h27.52.891,2024_RDpaindiscrimination_maintask,2023.2.3,60.011726291313636,2025-07-21 10h28.14.676972 -0400,
0,0,0,0,3,0,3,0,,,,,,,,,,,,,288.0547640999994,,,,,,,,288.04179489999933,293.0383026999998,293.0383089999996,293.05488389999937,305.0386441999999,3,inactive,43.8,305.0387813999996,307.5745203999995,26.999999999999975,2.515,305.0716771999996,,,,,,,,,,,,,,,,,,,,,,,,,,,,,,,,,,,,,,sub-060,43.8,41.7,44.73,COM3,2025-07-21_10h27.52.891,2024_RDpaindiscrimination_maintask,2023.2.3,60.011726291313636,2025-07-21 10h28.14.676972 -0400,
0,0,0,0,4,0,4,0,,,,,,,,,,,,,307.5883458999997,,,,,,,,307.57527990000017,312.57186959999945,312.5718759000001,312.5883895999996,324.5722019999994,0,active,41.7,324.5723367999999,327.7581176999993,21.500000000000004,3.165,324.60521249999965,,,,,,,,,,,,,,,,,,,,,,,,,,,,,,,,,,,,,,sub-060,43.8,41.7,44.73,COM3,2025-07-21_10h27.52.891,2024_RDpaindiscrimination_maintask,2023.2.3,60.011726291313636,2025-07-21 10h28.14.676972 -0400,
0,0,0,0,5,0,5,0,,,,,,,,,,,,,327.77188449999994,,,,,,,,327.7589094999994,332.7554059999993,332.7554117999998,332.7719406999995,344.7557459999998,1,inactive,43.8,344.75588609999977,348.00747950000004,32.50000000000003,3.231,344.78871359999994,,,,,,,,,,,,,,,,,,,,,,,,,,,,,,,,,,,,,,sub-060,43.8,41.7,44.73,COM3,2025-07-21_10h27.52.891,2024_RDpaindiscrimination_maintask,2023.2.3,60.011726291313636,2025-07-21 10h28.14.676972 -0400,
0,0,0,0,6,0,6,0,,,,,,,,,,,,,348.0220905999995,,,,,,,,348.0082846999994,353.00566919999983,353.00567580000006,353.02212359999976,365.00587389999964,2,inactive,43.8,365.00602379999964,367.5067507999993,28.500000000000043,2.48,365.0388782,,,,,,,,,,,,,,,,,,,,,,,,,,,,,,,,,,,,,,sub-060,43.8,41.7,44.73,COM3,2025-07-21_10h27.52.891,2024_RDpaindiscrimination_maintask,2023.2.3,60.011726291313636,2025-07-21 10h28.14.676972 -0400,
0,0,0,0,7,0,7,0,,,,,,,,,,,,,367.5222721,,,,,,,,367.50751069999933,372.50581299999976,372.5058189000001,372.5222653999999,384.5060687999994,3,active,41.7,384.506206,387.17400050000015,15.000000000000004,2.647,384.5391307,,,,,,,,,,,,,,,,,,,,,,,,,,,,,,,,,,,,,,sub-060,43.8,41.7,44.73,COM3,2025-07-21_10h27.52.891,2024_RDpaindiscrimination_maintask,2023.2.3,60.011726291313636,2025-07-21 10h28.14.676972 -0400,
0,0,0,0,8,0,8,0,,,,,,,,,,,,,387.18921299999965,,,,,,,,387.1747878999995,392.17262889999984,392.17263490000005,392.18915299999935,404.1728927999993,0,inactive,43.8,404.17302740000014,408.82664139999997,33.00000000000017,4.633,404.2060477999994,,,,,,,,,,,,,,,,,,,,,,,,,,,,,,,,,,,,,,sub-060,43.8,41.7,44.73,COM3,2025-07-21_10h27.52.891,2024_RDpaindiscrimination_maintask,2023.2.3,60.011726291313636,2025-07-21 10h28.14.676972 -0400,
0,0,0,0,9,0,9,0,,,,,,,,,,,,,408.8395223999996,,,,,,,,408.82744360000015,413.82286159999967,413.8228670999997,413.8393890999996,425.82331780000004,1,active,41.7,425.82348,430.60878429999957,14.000000000000075,4.765,425.8562333,,,,,,,,,,,,,,,,,,,,,,,,,,,,,,,,,,,,,,sub-060,43.8,41.7,44.73,COM3,2025-07-21_10h27.52.891,2024_RDpaindiscrimination_maintask,2023.2.3,60.011726291313636,2025-07-21 10h28.14.676972 -0400,
0,0,0,0,10,0,10,0,,,,,,,,,,,,,430.62305279999964,,,,,,,,430.60954589999983,435.6065467999997,435.6065527999999,435.6230734999999,447.60688889999983,2,inactive,43.8,447.6070572999997,453.0083823999994,18.000000000000178,5.381,447.63985820000016,,,,,,,,,,,,,,,,,,,,,,,,,,,,,,,,,,,,,,sub-060,43.8,41.7,44.73,COM3,2025-07-21_10h27.52.891,2024_RDpaindiscrimination_maintask,2023.2.3,60.011726291313636,2025-07-21 10h28.14.676972 -0400,
0,0,0,0,11,0,11,0,,,,,,,,,,,,,453.02328750000015,,,,,,,,453.0091616999998,458.00676010000006,458.0067669,458.02332299999944,470.0070890999996,3,active,41.7,470.0072255999994,472.64281739999933,23.999999999999993,2.615,470.0401189999993,,,,,,,,,,,,,,,,,,,,,,,,,,,,,,,,,,,,,,sub-060,43.8,41.7,44.73,COM3,2025-07-21_10h27.52.891,2024_RDpaindiscrimination_maintask,2023.2.3,60.011726291313636,2025-07-21 10h28.14.676972 -0400,
0,0,0,0,12,0,12,0,,,,,,,,,,,,,472.65685179999946,,,,,,,,472.6436294999994,477.6403088999996,477.6403150999995,477.65686689999984,489.64063989999977,0,inactive,43.8,489.64077779999934,495.3419817999993,26.500000000000085,5.68,489.6736820999995,,,,,,,,,,,,,,,,,,,,,,,,,,,,,,,,,,,,,,sub-060,43.8,41.7,44.73,COM3,2025-07-21_10h27.52.891,2024_RDpaindiscrimination_maintask,2023.2.3,60.011726291313636,2025-07-21 10h28.14.676972 -0400,
0,0,0,0,13,0,13,0,,,,,,,,,,,,,495.35704149999947,,,,,,,,495.34273140000005,500.34061979999933,500.3406256999997,500.35714069999995,512.3409344000002,1,active,41.7,512.3410703999998,514.1091849999993,10.0,1.747,512.3738978000001,,,,,,,,,,,,,,,,,,,,,,,,,,,,,,,,,,,,,,sub-060,43.8,41.7,44.73,COM3,2025-07-21_10h27.52.891,2024_RDpaindiscrimination_maintask,2023.2.3,60.011726291313636,2025-07-21 10h28.14.676972 -0400,
0,0,0,0,14,0,14,0,,,,,,,,,,,,,514.1240128999998,,,,,,,,514.1099172999993,519.1075551999993,519.1075609,519.1240995999997,531.1078069999994,2,active,41.7,531.1079448999999,532.9768186000001,20.0,1.848,531.1407443999997,,,,,,,,,,,,,,,,,,,,,,,,,,,,,,,,,,,,,,sub-060,43.8,41.7,44.73,COM3,2025-07-21_10h27.52.891,2024_RDpaindiscrimination_maintask,2023.2.3,60.011726291313636,2025-07-21 10h28.14.676972 -0400,
0,0,0,0,15,0,15,0,,,,,,,,,,,,,532.9908372,,,,,,,,532.9775881999994,537.9743989999997,537.9744049000001,537.9909223999994,549.9746582999996,3,inactive,43.8,549.9748009999994,555.4261380999997,32.000000000000036,5.431,550.0077023999993,,,,,,,,,,,,,,,,,,,,,,,,,,,,,,,,,,,,,,sub-060,43.8,41.7,44.73,COM3,2025-07-21_10h27.52.891,2024_RDpaindiscrimination_maintask,2023.2.3,60.011726291313636,2025-07-21 10h28.14.676972 -0400,
0,0,0,0,,,,,0,0,0,0,0,0,0,0,,,,,581.2080644999996,,,,,,579.1919897999996,581.1915595999999,,,,,,0,active,43.8,598.1915937999993,601.4767180999997,21.500000000000004,3.264,,555.4266852000001,555.4410813999993,579.1916533999993,581.1918565999995,586.1915755999999,586.1915816000001,586.2080595999996,598.1915857999993,,,,,,,,,,,,,,,,,,,,,,,,,,,,,,sub-060,43.8,41.7,44.73,COM3,2025-07-21_10h27.52.891,2024_RDpaindiscrimination_maintask,2023.2.3,60.011726291313636,2025-07-21 10h28.14.676972 -0400,
0,0,0,0,,,,,0,0,0,0,1,0,1,0,,,,,601.4915959,,,,,,,,,,,,,1,inactive,43.8,618.4754954999999,621.1933012999998,30.499999999999964,2.697,,,,,601.4773719999994,606.4750913999997,606.4750991000001,606.4915862999997,618.4754874,618.5084527999998,,,,,,,,,,,,,,,,,,,,,,,,,,,,,sub-060,43.8,41.7,44.73,COM3,2025-07-21_10h27.52.891,2024_RDpaindiscrimination_maintask,2023.2.3,60.011726291313636,2025-07-21 10h28.14.676972 -0400,
0,0,0,0,,,,,0,0,0,0,,,,,0,0,0,0,622.8917739999997,,,,,,,,,,,,,2,inactive,,,,,,,,,,,,,,,,621.1938249999994,622.8753237000001,622.8756306999994,627.8753640999994,627.8753706999996,627.8918291,635.8753264999996,635.8753264999996,638.8420273000002,638.8753599000001,638.8753599000001,638.8588196999999,3.4,5.4,340,540,8,1.2,0.75,pic-absent,0,n,1.6280070000002524,None,,,,,sub-060,43.8,41.7,44.73,COM3,2025-07-21_10h27.52.891,2024_RDpaindiscrimination_maintask,2023.2.3,60.011726291313636,2025-07-21 10h28.14.676972 -0400,
0,0,0,0,,,,,0,0,0,0,,,,,1,0,1,0,638.8753599000001,,,,,,,,,,,,,3,active,,,,,,,,,,,,,,,,,,638.8594466999994,643.8588782999996,643.8588844999995,643.8754123999997,651.8587522999997,651.8587522999997,654.8254542999994,654.8588546999999,654.8588546999999,654.8422725999999,4.49,4.31,449,430,8,1.2,0.75,pic-present,1,m,1.3605498999995689,None,,,,,sub-060,43.8,41.7,44.73,COM3,2025-07-21_10h27.52.891,2024_RDpaindiscrimination_maintask,2023.2.3,60.011726291313636,2025-07-21 10h28.14.676972 -0400,
0,0,0,0,,,,,0,0,0,0,,,,,2,0,2,0,654.8588546999999,,,,,,,,,,,,,0,inactive,,,,,,,,,,,,,,,,,,654.842764,659.8423409999996,659.8423471999995,659.8588608999999,667.8423463999998,667.8423463999998,670.8090530999998,670.8423766999995,670.8423766999995,670.8258656999997,4.74,4.06,474,405,8,1.2,0.75,pic-absent,0,n,2.152544200000193,None,,,,,sub-060,43.8,41.7,44.73,COM3,2025-07-21_10h27.52.891,2024_RDpaindiscrimination_maintask,2023.2.3,60.011726291313636,2025-07-21 10h28.14.676972 -0400,
0,0,0,0,,,,,0,0,0,0,,,,,3,0,3,0,670.8423766999995,,,,,,,,,,,,,1,inactive,,,,,,,,,,,,,,,,,,670.8263773999997,675.8258889999997,675.8258967000002,675.842396,683.8258484999997,683.8258484999997,686.7924616999999,686.8259133000001,686.8259133000001,686.8092861999994,4.06,4.74,405,474,8,1.2,0.75,pic-absent,0,n,1.397416400000111,None,,,,,sub-060,43.8,41.7,44.73,COM3,2025-07-21_10h27.52.891,2024_RDpaindiscrimination_maintask,2023.2.3,60.011726291313636,2025-07-21 10h28.14.676972 -0400,
0,0,0,0,,,,,1,0,1,0,0,0,0,0,,,,,688.2758924,,,,,,686.8097588999999,688.2594056999997,,,,,,2,inactive,43.8,705.2594534,710.0788606999995,22.00000000000007,4.798,,,,,688.2597269999997,693.2594375999997,693.2594435999999,693.2759558999996,705.2594455999997,,,,,,,,,,,,,,,,,,,,,,,,,,,,,,sub-060,43.8,41.7,44.73,COM3,2025-07-21_10h27.52.891,2024_RDpaindiscrimination_maintask,2023.2.3,60.011726291313636,2025-07-21 10h28.14.676972 -0400,
0,0,0,0,,,,,1,0,1,0,1,0,1,0,,,,,710.0928215999993,,,,,,,,,,,,,3,active,43.8,727.0766532999996,731.3120841999998,21.999999999999993,4.215,,,,,710.0796627,715.0763453999998,715.0763518999993,715.0928721,727.0766460999994,727.1096723,,,,,,,,,,,,,,,,,,,,,,,,,,,,,sub-060,43.8,41.7,44.73,COM3,2025-07-21_10h27.52.891,2024_RDpaindiscrimination_maintask,2023.2.3,60.011726291313636,2025-07-21 10h28.14.676972 -0400,
0,0,0,0,,,,,1,0,1,0,,,,,0,0,0,0,732.7430712999994,,,,,,,,,,,,,0,active,,,,,,,,,,,,,,,,731.3125818999997,732.7266652999997,732.7269784999999,737.7266025999998,737.7266097000002,737.7431792999996,745.7265354000001,745.7265354000001,748.6931627999993,748.7264662999996,748.7264662999996,748.7099803000001,3.52,5.28,352,528,8,1.2,0.75,pic-present,0,n,1.8336271999996825,None,,,,,sub-060,43.8,41.7,44.73,COM3,2025-07-21_10h27.52.891,2024_RDpaindiscrimination_maintask,2023.2.3,60.011726291313636,2025-07-21 10h28.14.676972 -0400,
0,0,0,0,,,,,1,0,1,0,,,,,1,0,1,0,748.7264662999996,,,,,,,,,,,,,1,inactive,,,,,,,,,,,,,,,,,,748.7105040999995,753.7101194999996,753.7101260999998,753.7266504999998,761.7100272999996,761.7100272999996,764.6767575999993,764.7100986999994,764.7100986999994,764.6936040999999,3.81,4.99,381,499,8,1.2,0.75,pic-present,1,m,1.3852975999998307,None,,,,,sub-060,43.8,41.7,44.73,COM3,2025-07-21_10h27.52.891,2024_RDpaindiscrimination_maintask,2023.2.3,60.011726291313636,2025-07-21 10h28.14.676972 -0400,
0,0,0,0,,,,,1,0,1,0,,,,,2,0,2,0,764.7100986999994,,,,,,,,,,,,,2,active,,,,,,,,,,,,,,,,,,764.6940931999998,769.6936439000001,769.6936501999999,769.7101579999999,777.6935680999995,777.6935680999995,780.6602794,780.6935985999999,780.6935985999999,780.6771156999994,4.03,4.77,403,476,8,1.2,0.75,pic-absent,0,n,1.4221027999992657,None,,,,,sub-060,43.8,41.7,44.73,COM3,2025-07-21_10h27.52.891,2024_RDpaindiscrimination_maintask,2023.2.3,60.011726291313636,2025-07-21 10h28.14.676972 -0400,
0,0,0,0,,,,,1,0,1,0,,,,,3,0,3,0,780.6935985999999,,,,,,,,,,,,,3,inactive,,,,,,,,,,,,,,,,,,780.6776154999998,785.6770835999996,785.6770901,785.6936243,793.6770858999998,793.6770858999998,796.6437792999996,796.6771075999995,796.6771075999995,796.6606303999997,3.65,5.15,365,515,8,1.2,0.75,pic-present,1,m,1.534773700000187,None,,,,,sub-060,43.8,41.7,44.73,COM3,2025-07-21_10h27.52.891,2024_RDpaindiscrimination_maintask,2023.2.3,60.011726291313636,2025-07-21 10h28.14.676972 -0400,
0,0,0,0,,,,,2,0,2,0,0,0,0,0,,,,,797.9437250000001,,,,,,796.6611088,797.9273153999993,,,,,,0,active,43.8,814.9273526999996,818.0447076999999,19.500000000000007,3.096,,,,,797.9275988999998,802.9273227999993,802.9273291999998,802.9438083999994,814.9273451999998,,,,,,,,,,,,,,,,,,,,,,,,,,,,,,sub-060,43.8,41.7,44.73,COM3,2025-07-21_10h27.52.891,2024_RDpaindiscrimination_maintask,2023.2.3,60.011726291313636,2025-07-21 10h28.14.676972 -0400,
0,0,0,0,,,,,2,0,2,0,1,0,1,0,,,,,818.0606567999994,,,,,,,,,,,,,1,inactive,43.8,835.0445350999998,840.2464642999994,16.000000000000078,5.183,,,,,818.0449761999998,823.0442238999995,823.0442303,823.0607371999995,835.0445282000001,835.0775349999994,,,,,,,,,,,,,,,,,,,,,,,,,,,,,sub-060,43.8,41.7,44.73,COM3,2025-07-21_10h27.52.891,2024_RDpaindiscrimination_maintask,2023.2.3,60.011726291313636,2025-07-21 10h28.14.676972 -0400,
0,0,0,0,,,,,2,0,2,0,,,,,0,0,0,0,841.6442424999996,,,,,,,,,,,,,2,active,,,,,,,,,,,,,,,,840.2469796999994,841.6277665999996,841.6280761999997,846.6277305999993,846.6277369999998,846.6442545,854.6277623999995,854.6277623999995,857.5944652999997,857.6277906999994,857.6277906999994,857.6113093999993,3.74,5.06,374,505,8,1.2,0.75,pic-absent,0,n,1.6563479000005827,None,,,,,sub-060,43.8,41.7,44.73,COM3,2025-07-21_10h27.52.891,2024_RDpaindiscrimination_maintask,2023.2.3,60.011726291313636,2025-07-21 10h28.14.676972 -0400,
0,0,0,0,,,,,2,0,2,0,,,,,1,0,1,0,857.6277906999994,,,,,,,,,,,,,3,active,,,,,,,,,,,,,,,,,,857.6118594999998,862.6113271999993,862.6113335999999,862.6278481999998,870.6111529,870.6111529,873.5778804000001,873.6112155000001,873.6112155000001,873.5947516999995,3.26,5.54,326,554,8,1.2,0.75,pic-absent,1,m,1.7805774999997084,None,,,,,sub-060,43.8,41.7,44.73,COM3,2025-07-21_10h27.52.891,2024_RDpaindiscrimination_maintask,2023.2.3,60.011726291313636,2025-07-21 10h28.14.676972 -0400,
0,0,0,0,,,,,2,0,2,0,,,,,2,0,2,0,873.6112155000001,,,,,,,,,,,,,0,inactive,,,,,,,,,,,,,,,,,,873.5953302999997,878.5947114,878.5947178999995,878.6112499999999,886.5947780999995,886.5947780999995,889.5613550999997,889.5947622999993,889.5947622999993,889.5781841999997,4.05,4.75,405,475,8,1.2,0.75,pic-present,1,m,1.2929081000002043,None,,,,,sub-060,43.8,41.7,44.73,COM3,2025-07-21_10h27.52.891,2024_RDpaindiscrimination_maintask,2023.2.3,60.011726291313636,2025-07-21 10h28.14.676972 -0400,
0,0,0,0,,,,,2,0,2,0,,,,,3,0,3,0,889.5947622999993,,,,,,,,,,,,,1,active,,,,,,,,,,,,,,,,,,889.5786834,894.5784157999997,894.5784223,894.5948768999997,902.5783007999999,902.5783007999999,905.5449638999999,905.5783639000001,905.5783639000001,905.5617966999998,3.65,5.15,365,515,8,1.2,0.75,pic-absent,0,n,1.354200600000695,None,,,,,sub-060,43.8,41.7,44.73,COM3,2025-07-21_10h27.52.891,2024_RDpaindiscrimination_maintask,2023.2.3,60.011726291313636,2025-07-21 10h28.14.676972 -0400,
0,0,0,0,,,,,3,0,3,0,0,0,0,0,,,,,907.0283688,,,,,,905.5623134999996,907.0118432999998,,,,,,2,inactive,43.8,924.0121023000002,929.8632481999994,20.000000000000142,5.831,,,,,907.0121254999995,912.0118149,912.011821,912.0282782999993,924.0120945999997,924.0450990999998,,,,,,,,,,,,,,,,,,,,,,,,,,,,,sub-060,43.8,41.7,44.73,COM3,2025-07-21_10h27.52.891,2024_RDpaindiscrimination_maintask,2023.2.3,60.011726291313636,2025-07-21 10h28.14.676972 -0400,
0,0,0,0,,,,,3,0,3,0,1,0,1,0,,,,,929.878557,,,,,,,,,,,,,3,active,43.8,946.8624166,951.5971383999995,20.500000000000007,4.714,,,,,929.8639533999994,934.8620661999994,934.8620725999999,934.8785434000001,946.8624091000001,946.8954106000001,,,,,,,,,,,,,,,,,,,,,,,,,,,,,sub-060,43.8,41.7,44.73,COM3,2025-07-21_10h27.52.891,2024_RDpaindiscrimination_maintask,2023.2.3,60.011726291313636,2025-07-21 10h28.14.676972 -0400,
0,0,0,0,,,,,3,0,3,0,,,,,0,0,0,0,953.1287327999999,,,,,,,,,,,,,0,inactive,,,,,,,,,,,,,,,,951.5976852999993,953.1123161999994,953.1126353,958.1122701999993,958.1122771,958.1288132999998,966.1123072,966.1123072,969.078915,969.1122509999996,969.1122509999996,969.0957294,4.69,4.11,469,411,8,1.2,0.75,pic-present,1,m,1.5144528999999238,None,,,,,sub-060,43.8,41.7,44.73,COM3,2025-07-21_10h27.52.891,2024_RDpaindiscrimination_maintask,2023.2.3,60.011726291313636,2025-07-21 10h28.14.676972 -0400,
0,0,0,0,,,,,3,0,3,0,,,,,1,0,1,0,969.1122509999996,,,,,,,,,,,,,1,inactive,,,,,,,,,,,,,,,,,,969.0962258999998,974.0957726999995,974.0957798,974.1123017999998,982.0957548999995,982.0957548999995,985.0624204999995,985.0958006999999,985.0958006999999,985.0792516000001,3.45,5.35,345,535,8,1.2,0.75,pic-absent,0,n,0.6438078000001042,None,,,,,sub-060,43.8,41.7,44.73,COM3,2025-07-21_10h27.52.891,2024_RDpaindiscrimination_maintask,2023.2.3,60.011726291313636,2025-07-21 10h28.14.676972 -0400,
0,0,0,0,,,,,3,0,3,0,,,,,2,0,2,0,985.0958006999999,,,,,,,,,,,,,2,active,,,,,,,,,,,,,,,,,,985.0797205999997,990.0792873,990.0792934000001,990.0958132999995,998.0793000999993,998.0793000999993,1001.0460144999997,1001.1459447999996,1001.1459447999996,1001.0628533999998,4.31,4.49,430,449,8,1.2,0.75,pic-present,1,m,0.5439776000002894,None,,,,,sub-060,43.8,41.7,44.73,COM3,2025-07-21_10h27.52.891,2024_RDpaindiscrimination_maintask,2023.2.3,60.011726291313636,2025-07-21 10h28.14.676972 -0400,
0,0,0,0,,,,,3,0,3,0,,,,,3,0,3,0,1001.1459447999996,,,,,,,,,,,,,3,active,,,,,,,,,,,,,,,,,,1001.0632937,1006.0794609999994,1006.0794675999996,1006.0960666000001,1014.0628336999998,1014.0628336999998,1017.0461841999995,1017.0627653000001,1017.0627653000001,1017.0463596,4.62,4.18,462,418,8,1.2,0.75,pic-present,0,n,1.5803538000000117,None,,,,,sub-060,43.8,41.7,44.73,COM3,2025-07-21_10h27.52.891,2024_RDpaindiscrimination_maintask,2023.2.3,60.011726291313636,2025-07-21 10h28.14.676972 -0400,
1,0,1,0,0,0,0,0,,,,,,,,,,,,,1035.0463841,,,,1030.4633342999996,1031.0798534999994,1031.0798606999997,1035.0299262999997,1035.0302526999994,1040.0299103999996,1040.0299159999995,1040.0464484999993,1052.0301658999997,0,active,41.7,1052.0303771,1057.9829542999996,9.500000000000071,5.929,1052.0631837,,,,,,,,,,,,,,,,,,,,,,,,,,,,,,,,,,1017.0468077999994,1030.4632145999994,,,sub-060,43.8,41.7,44.73,COM3,2025-07-21_10h27.52.891,2024_RDpaindiscrimination_maintask,2023.2.3,60.011726291313636,2025-07-21 10h28.14.676972 -0400,
1,0,1,0,1,0,1,0,,,,,,,,,,,,,1057.9967367,,,,,,,,1057.9839047999994,1062.9801485999997,1062.9801552999998,1062.9966521999995,1074.9804752999999,1,inactive,43.8,1074.9806109,1078.7487832999996,20.0,3.747,1075.0135394999998,,,,,,,,,,,,,,,,,,,,,,,,,,,,,,,,,,,,,,sub-060,43.8,41.7,44.73,COM3,2025-07-21_10h27.52.891,2024_RDpaindiscrimination_maintask,2023.2.3,60.011726291313636,2025-07-21 10h28.14.676972 -0400,
1,0,1,0,2,0,2,0,,,,,,,,,,,,,1078.7635446999993,,,,,,,,1078.7495669999998,1083.7471135999995,1083.7471199000001,1083.7636406000001,1095.7473965999998,2,active,41.7,1095.7475291,1100.3165908,11.000000000000135,4.549,1095.7803963999995,,,,,,,,,,,,,,,,,,,,,,,,,,,,,,,,,,,,,,sub-060,43.8,41.7,44.73,COM3,2025-07-21_10h27.52.891,2024_RDpaindiscrimination_maintask,2023.2.3,60.011726291313636,2025-07-21 10h28.14.676972 -0400,
1,0,1,0,3,0,3,0,,,,,,,,,,,,,1100.3305088999996,,,,,,,,1100.3173852,1105.3140116999994,1105.3140174999999,1105.3305347999994,1117.3142688999997,3,active,41.7,1117.3144272,1122.7839979,10.000000000000071,5.45,1117.3472783999996,,,,,,,,,,,,,,,,,,,,,,,,,,,,,,,,,,,,,,sub-060,43.8,41.7,44.73,COM3,2025-07-21_10h27.52.891,2024_RDpaindiscrimination_maintask,2023.2.3,60.011726291313636,2025-07-21 10h28.14.676972 -0400,
1,0,1,0,4,0,4,0,,,,,,,,,,,,,1122.7974752999999,,,,,,,,1122.7847646999999,1127.780858,1127.7808639999994,1127.7974502999996,1139.7812763000002,0,inactive,43.8,1139.7814155999995,1141.9662978999995,30.0,2.164,1139.8143057999996,,,,,,,,,,,,,,,,,,,,,,,,,,,,,,,,,,,,,,sub-060,43.8,41.7,44.73,COM3,2025-07-21_10h27.52.891,2024_RDpaindiscrimination_maintask,2023.2.3,60.011726291313636,2025-07-21 10h28.14.676972 -0400,
1,0,1,0,5,0,5,0,,,,,,,,,,,,,1141.9809589999995,,,,,,,,1141.9670818999994,1146.9645016999993,1146.9645074999999,1146.9809956,1158.9648339999994,1,active,41.7,1158.9649706999999,1164.0163175999996,29.00000000000005,5.03,1158.9978166,,,,,,,,,,,,,,,,,,,,,,,,,,,,,,,,,,,,,,sub-060,43.8,41.7,44.73,COM3,2025-07-21_10h27.52.891,2024_RDpaindiscrimination_maintask,2023.2.3,60.011726291313636,2025-07-21 10h28.14.676972 -0400,
1,0,1,0,6,0,6,0,,,,,,,,,,,,,1164.0311973999997,,,,,,,,1164.0170897999997,1169.0147300999997,1169.0147361,1169.0311688000002,1181.0150771999997,2,active,41.7,1181.0152203999996,1185.5678059000002,24.50000000000002,4.532,1181.0480260999993,,,,,,,,,,,,,,,,,,,,,,,,,,,,,,,,,,,,,,sub-060,43.8,41.7,44.73,COM3,2025-07-21_10h27.52.891,2024_RDpaindiscrimination_maintask,2023.2.3,60.011726291313636,2025-07-21 10h28.14.676972 -0400,
1,0,1,0,7,0,7,0,,,,,,,,,,,,,1185.5814428999993,,,,,,,,1185.5686182,1190.5649348999996,1190.5649413,1190.5814511999997,1202.5652694,3,inactive,43.8,1202.5654047999997,1209.8336971999997,10.000000000000071,7.249,1202.5982828999995,,,,,,,,,,,,,,,,,,,,,,,,,,,,,,,,,,,,,,sub-060,43.8,41.7,44.73,COM3,2025-07-21_10h27.52.891,2024_RDpaindiscrimination_maintask,2023.2.3,60.011726291313636,2025-07-21 10h28.14.676972 -0400,
1,0,1,0,8,0,8,0,,,,,,,,,,,,,1209.8483694999995,,,,,,,,1209.8344674999998,1214.8318539000002,1214.8318598999995,1214.8483966999993,1226.8321777,0,inactive,43.8,1226.8323123999999,1231.1166175999997,12.500000000000064,4.264,1226.8651849999997,,,,,,,,,,,,,,,,,,,,,,,,,,,,,,,,,,,,,,sub-060,43.8,41.7,44.73,COM3,2025-07-21_10h27.52.891,2024_RDpaindiscrimination_maintask,2023.2.3,60.011726291313636,2025-07-21 10h28.14.676972 -0400,
1,0,1,0,9,0,9,0,,,,,,,,,,,,,1231.1319079999994,,,,,,,,1231.1173809000002,1236.1154611000002,1236.1154668,1236.1319973,1248.1157302000001,1,active,41.7,1248.1158676999994,1252.8008407999996,6.500000000000059,4.665,1248.148819,,,,,,,,,,,,,,,,,,,,,,,,,,,,,,,,,,,,,,sub-060,43.8,41.7,44.73,COM3,2025-07-21_10h27.52.891,2024_RDpaindiscrimination_maintask,2023.2.3,60.011726291313636,2025-07-21 10h28.14.676972 -0400,
1,0,1,0,10,0,10,0,,,,,,,,,,,,,1252.8155415,,,,,,,,1252.8015999,1257.7990083999994,1257.7990145999993,1257.8155594999998,1269.7993890999996,2,inactive,43.8,1269.7995271999998,1275.3016398999998,21.500000000000075,5.481,1269.8323481999996,,,,,,,,,,,,,,,,,,,,,,,,,,,,,,,,,,,,,,sub-060,43.8,41.7,44.73,COM3,2025-07-21_10h27.52.891,2024_RDpaindiscrimination_maintask,2023.2.3,60.011726291313636,2025-07-21 10h28.14.676972 -0400,
1,0,1,0,11,0,11,0,,,,,,,,,,,,,1275.3157891,,,,,,,,1275.3023599999997,1280.2993523999994,1280.2993585999993,1280.3157984,1292.2996001000001,3,inactive,43.8,1292.2997402,1296.2187766999996,30.99999999999997,3.898,1292.3329601999994,,,,,,,,,,,,,,,,,,,,,,,,,,,,,,,,,,,,,,sub-060,43.8,41.7,44.73,COM3,2025-07-21_10h27.52.891,2024_RDpaindiscrimination_maintask,2023.2.3,60.011726291313636,2025-07-21 10h28.14.676972 -0400,
1,0,1,0,12,0,12,0,,,,,,,,,,,,,1296.2326175999997,,,,,,,,1296.2195284999998,1301.2161796999999,1301.2161857,1301.2326567,1313.2164678999998,0,active,41.7,1313.2166045999993,1318.3517271,12.000000000000206,5.115,1313.2495007999996,,,,,,,,,,,,,,,,,,,,,,,,,,,,,,,,,,,,,,sub-060,43.8,41.7,44.73,COM3,2025-07-21_10h27.52.891,2024_RDpaindiscrimination_maintask,2023.2.3,60.011726291313636,2025-07-21 10h28.14.676972 -0400,
1,0,1,0,13,0,13,0,,,,,,,,,,,,,1318.3662872999994,,,,,,,,1318.3524785,1323.3497791999998,1323.3497853,1323.3662802,1335.3501022,1,inactive,43.8,1335.3502373000001,1339.768978,13.000000000000135,4.398,1335.3831070999995,,,,,,,,,,,,,,,,,,,,,,,,,,,,,,,,,,,,,,sub-060,43.8,41.7,44.73,COM3,2025-07-21_10h27.52.891,2024_RDpaindiscrimination_maintask,2023.2.3,60.011726291313636,2025-07-21 10h28.14.676972 -0400,
1,0,1,0,14,0,14,0,,,,,,,,,,,,,1339.7831374999996,,,,,,,,1339.7697763999995,1344.7666591999996,1344.7666651999998,1344.7831869000001,1356.7669281999997,2,inactive,43.8,1356.7670634999995,1360.3532347999999,13.000000000000135,3.565,1356.7999485,,,,,,,,,,,,,,,,,,,,,,,,,,,,,,,,,,,,,,sub-060,43.8,41.7,44.73,COM3,2025-07-21_10h27.52.891,2024_RDpaindiscrimination_maintask,2023.2.3,60.011726291313636,2025-07-21 10h28.14.676972 -0400,
1,0,1,0,15,0,15,0,,,,,,,,,,,,,1360.3666915999993,,,,,,,,1360.3540165999993,1365.3502240999997,1365.3502306,1365.3667029999997,1377.3505738999993,3,active,41.7,1377.3507150999994,1381.5527682000002,13.500000000000172,4.182,1377.3835915999998,,,,,,,,,,,,,,,,,,,,,,,,,,,,,,,,,,,,,,sub-060,43.8,41.7,44.73,COM3,2025-07-21_10h27.52.891,2024_RDpaindiscrimination_maintask,2023.2.3,60.011726291313636,2025-07-21 10h28.14.676972 -0400,
1,0,1,0,,,,,0,0,0,0,0,0,0,0,,,,,1384.600257,,,,,,1384.2007644999994,1384.5837665,,,,,,0,inactive,43.8,1401.5840732999995,1403.4530636999998,40.0,1.849,,1381.5533747,1381.5669481999994,1384.2004237,1384.5840432999994,1389.5837790999994,1389.5837861,1389.6003014999997,1401.5840645999997,1401.6171094000001,,,,,,,,,,,,,,,,,,,,,,,,,,,,,sub-060,43.8,41.7,44.73,COM3,2025-07-21_10h27.52.891,2024_RDpaindiscrimination_maintask,2023.2.3,60.011726291313636,2025-07-21 10h28.14.676972 -0400,
1,0,1,0,,,,,0,0,0,0,1,0,1,0,,,,,1403.4671966999995,,,,,,,,,,,,,1,active,43.8,1420.4510681000002,1424.3521708999997,46.500000000000014,3.881,,,,,1403.4538169999996,1408.4507673999997,1408.4507733,1408.4672288000002,1420.4510605999994,1420.4840048999995,,,,,,,,,,,,,,,,,,,,,,,,,,,,,sub-060,43.8,41.7,44.73,COM3,2025-07-21_10h27.52.891,2024_RDpaindiscrimination_maintask,2023.2.3,60.011726291313636,2025-07-21 10h28.14.676972 -0400,
1,0,1,0,,,,,0,0,0,0,,,,,0,0,0,0,1426.0174108,,,,,,,,,,,,,2,inactive,,,,,,,,,,,,,,,,1424.3526916,1426.0009298999994,1426.0012495,1431.0009104,1431.0009172,1431.0174509999997,1439.0009454,1439.0009454,1441.9675530999993,1442.0009241999996,1442.0009241999996,1441.9843698999994,3.39,5.41,339,541,8,1.2,0.75,pic-present,0,n,2.5582781000002797,None,,,,,sub-060,43.8,41.7,44.73,COM3,2025-07-21_10h27.52.891,2024_RDpaindiscrimination_maintask,2023.2.3,60.011726291313636,2025-07-21 10h28.14.676972 -0400,
1,0,1,0,,,,,0,0,0,0,,,,,1,0,1,0,1442.0009241999996,,,,,,,,,,,,,3,active,,,,,,,,,,,,,,,,,,1441.9848676000001,1446.984496,1446.9845030999995,1447.0009903999999,1454.9844052999997,1454.9844052999997,1457.9511636999996,1457.9844772999995,1457.9844772999995,1457.9680023,4.2,4.6,420,459,8,1.2,0.75,pic-absent,1,m,1.3756499000000986,None,,,,,sub-060,43.8,41.7,44.73,COM3,2025-07-21_10h27.52.891,2024_RDpaindiscrimination_maintask,2023.2.3,60.011726291313636,2025-07-21 10h28.14.676972 -0400,
1,0,1,0,,,,,0,0,0,0,,,,,2,0,2,0,1457.9844772999995,,,,,,,,,,,,,0,inactive,,,,,,,,,,,,,,,,,,1457.9684643,1462.9679737999995,1462.9679803999998,1462.9844600999995,1470.9678992,1470.9678992,1473.9345889999995,1473.9678945999995,1473.9678945999995,1473.9514240999997,4.26,4.54,426,454,8,1.2,0.75,pic-absent,0,n,1.2751862000004621,None,,,,,sub-060,43.8,41.7,44.73,COM3,2025-07-21_10h27.52.891,2024_RDpaindiscrimination_maintask,2023.2.3,60.011726291313636,2025-07-21 10h28.14.676972 -0400,
1,0,1,0,,,,,0,0,0,0,,,,,3,0,3,0,1473.9678945999995,,,,,,,,,,,,,1,inactive,,,,,,,,,,,,,,,,,,1473.9519345999997,1478.9514663,1478.9514725999998,1478.9679999999998,1486.9514706,1486.9514706,1489.9180551999998,1489.9513828,1489.9513828,1489.934983,3.51,5.29,351,529,8,1.2,0.75,pic-present,1,m,1.5071146999998746,None,,,,,sub-060,43.8,41.7,44.73,COM3,2025-07-21_10h27.52.891,2024_RDpaindiscrimination_maintask,2023.2.3,60.011726291313636,2025-07-21 10h28.14.676972 -0400,
1,0,1,0,,,,,1,0,1,0,0,0,0,0,,,,,1491.4847356999999,,,,,,1489.9354869,1491.4683056999993,,,,,,2,active,43.8,1508.4683793999993,1513.4710593999998,18.500000000000213,4.983,,,,,1491.4686037000001,1496.4683491999995,1496.4683563999997,1496.4848806999998,1508.4683711999996,,,,,,,,,,,,,,,,,,,,,,,,,,,,,,sub-060,43.8,41.7,44.73,COM3,2025-07-21_10h27.52.891,2024_RDpaindiscrimination_maintask,2023.2.3,60.011726291313636,2025-07-21 10h28.14.676972 -0400,
1,0,1,0,,,,,1,0,1,0,1,0,1,0,,,,,1513.4850177999997,,,,,,,,,,,,,3,inactive,43.8,1530.4688532,1535.0538966999993,18.500000000000007,4.564,,,,,1513.4718385999995,1518.4685161999996,1518.4685218999994,1518.4850397999999,1530.4688462999993,1530.5019805000002,,,,,,,,,,,,,,,,,,,,,,,,,,,,,sub-060,43.8,41.7,44.73,COM3,2025-07-21_10h27.52.891,2024_RDpaindiscrimination_maintask,2023.2.3,60.011726291313636,2025-07-21 10h28.14.676972 -0400,
1,0,1,0,,,,,1,0,1,0,,,,,0,0,0,0,1536.4852118999997,,,,,,,,,,,,,0,active,,,,,,,,,,,,,,,,1535.0544009999994,1536.4688220999997,1536.4691119999998,1541.4687589999994,1541.4687653,1541.4852906999995,1549.4687918999998,1549.4687918999998,1552.4354598999998,1552.4688353000001,1552.4688353000001,1552.4523012999998,3.48,5.32,348,532,8,1.2,0.75,pic-present,1,m,1.4553431000003911,None,,,,,sub-060,43.8,41.7,44.73,COM3,2025-07-21_10h27.52.891,2024_RDpaindiscrimination_maintask,2023.2.3,60.011726291313636,2025-07-21 10h28.14.676972 -0400,
1,0,1,0,,,,,1,0,1,0,,,,,1,0,1,0,1552.4688353000001,,,,,,,,,,,,,1,inactive,,,,,,,,,,,,,,,,,,1552.4528284999997,1557.4523174999995,1557.4523239,1557.4688090999998,1565.4522467999996,1565.4522467999996,1568.4189988999997,1568.4523371999994,1568.4523371999994,1568.4358412000001,4.72,4.08,472,408,8,1.2,0.75,pic-absent,0,n,1.3624692000003051,None,,,,,sub-060,43.8,41.7,44.73,COM3,2025-07-21_10h27.52.891,2024_RDpaindiscrimination_maintask,2023.2.3,60.011726291313636,2025-07-21 10h28.14.676972 -0400,
1,0,1,0,,,,,1,0,1,0,,,,,2,0,2,0,1568.4523371999994,,,,,,,,,,,,,2,active,,,,,,,,,,,,,,,,,,1568.4363015,1573.4358684,1573.4358751999998,1573.4523351999997,1581.4357414999995,1581.4357414999995,1584.4024390999994,1584.4357842999998,1584.4357842999998,1584.4192636999996,3.72,5.08,372,508,8,1.2,0.75,pic-present,1,m,1.3627996000004714,None,,,,,sub-060,43.8,41.7,44.73,COM3,2025-07-21_10h27.52.891,2024_RDpaindiscrimination_maintask,2023.2.3,60.011726291313636,2025-07-21 10h28.14.676972 -0400,
1,0,1,0,,,,,1,0,1,0,,,,,3,0,3,0,1584.4357842999998,,,,,,,,,,,,,3,inactive,,,,,,,,,,,,,,,,,,1584.4202858999997,1589.4194001999995,1589.4194063999994,1589.4358692999995,1597.4193245999995,1597.4193245999995,1600.3859885000002,1600.4193568,1600.4193568,1600.4028533,4.66,4.14,466,413,8,1.2,0.75,pic-absent,1,m,1.5755977999997413,None,,,,,sub-060,43.8,41.7,44.73,COM3,2025-07-21_10h27.52.891,2024_RDpaindiscrimination_maintask,2023.2.3,60.011726291313636,2025-07-21 10h28.14.676972 -0400,
1,0,1,0,,,,,2,0,2,0,0,0,0,0,,,,,1601.8693023999995,,,,,,1600.4033275000002,1601.8528859999997,,,,,,0,inactive,43.8,1618.8529369999997,1622.0382314999997,16.000000000000032,3.165,,,,,1601.8531650999994,1606.8528299,1606.8528363999994,1606.8693733,1618.8529290999995,,,,,,,,,,,,,,,,,,,,,,,,,,,,,,sub-060,43.8,41.7,44.73,COM3,2025-07-21_10h27.52.891,2024_RDpaindiscrimination_maintask,2023.2.3,60.011726291313636,2025-07-21 10h28.14.676972 -0400,
1,0,1,0,,,,,2,0,2,0,1,0,1,0,,,,,1622.0529456999993,,,,,,,,,,,,,1,active,43.8,1639.0368257,1643.7553288999998,7.000000000000068,4.698,,,,,1622.0389922999993,1627.0365068,1627.0365126999995,1627.0530355,1639.0368181999993,1639.0697733999996,,,,,,,,,,,,,,,,,,,,,,,,,,,,,sub-060,43.8,41.7,44.73,COM3,2025-07-21_10h27.52.891,2024_RDpaindiscrimination_maintask,2023.2.3,60.011726291313636,2025-07-21 10h28.14.676972 -0400,
1,0,1,0,,,,,2,0,2,0,,,,,0,0,0,0,1645.3531454999993,,,,,,,,,,,,,2,active,,,,,,,,,,,,,,,,1643.7558725999997,1645.3367343999998,1645.3370478999996,1650.3366731999995,1650.3366803,1650.3532767999995,1658.3366288999996,1658.3366288999996,1661.3033347,1661.3367312999999,1661.3367312999999,1661.3201559,4.69,4.11,469,411,8,1.2,0.75,pic-absent,0,n,1.3549029999994673,None,,,,,sub-060,43.8,41.7,44.73,COM3,2025-07-21_10h27.52.891,2024_RDpaindiscrimination_maintask,2023.2.3,60.011726291313636,2025-07-21 10h28.14.676972 -0400,
1,0,1,0,,,,,2,0,2,0,,,,,1,0,1,0,1661.3367312999999,,,,,,,,,,,,,3,inactive,,,,,,,,,,,,,,,,,,1661.3206764999995,1666.3202751,1666.3202814999995,1666.3368014999996,1674.3201553,1674.3201553,1677.2868660999993,1677.3201755,1677.3201755,1677.3036539999994,3.61,5.19,361,519,8,1.2,0.75,pic-present,0,n,1.3143084000003,None,,,,,sub-060,43.8,41.7,44.73,COM3,2025-07-21_10h27.52.891,2024_RDpaindiscrimination_maintask,2023.2.3,60.011726291313636,2025-07-21 10h28.14.676972 -0400,
1,0,1,0,,,,,2,0,2,0,,,,,2,0,2,0,1677.3201755,,,,,,,,,,,,,0,inactive,,,,,,,,,,,,,,,,,,1677.3041366999996,1682.3037229000001,1682.3037297,1682.3202637999993,1690.3037519,1690.3037519,1693.2703510000001,1693.3037397999997,1693.3037397999997,1693.2871718999995,4.33,4.47,433,447,8,1.2,0.75,pic-present,1,m,1.4392198999994434,None,,,,,sub-060,43.8,41.7,44.73,COM3,2025-07-21_10h27.52.891,2024_RDpaindiscrimination_maintask,2023.2.3,60.011726291313636,2025-07-21 10h28.14.676972 -0400,
1,0,1,0,,,,,2,0,2,0,,,,,3,0,3,0,1693.3037397999997,,,,,,,,,,,,,1,active,,,,,,,,,,,,,,,,,,1693.2876344999995,1698.2872265999995,1698.2872331999997,1698.3037458999997,1706.2872086999996,1706.2872086999996,1709.2539731999996,1709.2872848999996,1709.2872848999996,1709.2707264,4.15,4.65,415,465,8,1.2,0.75,pic-absent,0,n,1.2321497000002637,None,,,,,sub-060,43.8,41.7,44.73,COM3,2025-07-21_10h27.52.891,2024_RDpaindiscrimination_maintask,2023.2.3,60.011726291313636,2025-07-21 10h28.14.676972 -0400,
1,0,1,0,,,,,3,0,3,0,0,0,0,0,,,,,1710.9539865999996,,,,,,1709.2712162999997,1710.9375654999994,,,,,,2,active,43.8,1727.9377402,1731.7738811999998,14.500000000000004,3.816,,,,,1710.9378374999997,1715.9374508,1715.9374571999997,1715.9539648999998,1727.9377317999997,1727.9707393999997,,,,,,,,,,,,,,,,,,,,,,,,,,,,,sub-060,43.8,41.7,44.73,COM3,2025-07-21_10h27.52.891,2024_RDpaindiscrimination_maintask,2023.2.3,60.011726291313636,2025-07-21 10h28.14.676972 -0400,
1,0,1,0,,,,,3,0,3,0,1,0,1,0,,,,,1731.787526,,,,,,,,,,,,,3,inactive,43.8,1748.7712996,1754.1893659999996,10.500000000000204,5.397,,,,,1731.7746627999995,1736.7709680999997,1736.7709743999994,1736.7875003,1748.7712913999994,1748.8043852,,,,,,,,,,,,,,,,,,,,,,,,,,,,,sub-060,43.8,41.7,44.73,COM3,2025-07-21_10h27.52.891,2024_RDpaindiscrimination_maintask,2023.2.3,60.011726291313636,2025-07-21 10h28.14.676972 -0400,
1,0,1,0,,,,,3,0,3,0,,,,,0,0,0,0,1755.937723,,,,,,,,,,,,,0,inactive,,,,,,,,,,,,,,,,1754.1899537999998,1755.9213326999998,1755.9216736999997,1760.9213070999995,1760.9213134000001,1760.9381844999998,1768.9211595999996,1768.9211595999996,1771.8879888000001,1771.9213317999993,1771.9213317999993,1771.9048274999996,4.6,4.2,459,420,8,1.2,0.75,pic-absent,0,n,1.5827374000000418,None,,,,,sub-060,43.8,41.7,44.73,COM3,2025-07-21_10h27.52.891,2024_RDpaindiscrimination_maintask,2023.2.3,60.011726291313636,2025-07-21 10h28.14.676972 -0400,
1,0,1,0,,,,,3,0,3,0,,,,,1,0,1,0,1771.9213317999993,,,,,,,,,,,,,1,active,,,,,,,,,,,,,,,,,,1771.9054392999997,1776.9047130999998,1776.9047192999997,1776.9213362,1784.9048311999995,1784.9048311999995,1787.8713705999999,1787.9048039,1787.9048039,1787.8883974,3.39,5.41,339,541,8,1.2,0.75,pic-present,1,m,0.3665205999996033,None,,,,,sub-060,43.8,41.7,44.73,COM3,2025-07-21_10h27.52.891,2024_RDpaindiscrimination_maintask,2023.2.3,60.011726291313636,2025-07-21 10h28.14.676972 -0400,
1,0,1,0,,,,,3,0,3,0,,,,,2,0,2,0,1787.9048039,,,,,,,,,,,,,2,active,,,,,,,,,,,,,,,,,,1787.8888926999998,1792.8882601999994,1792.8882673999997,1792.9047824,1800.8882955,1800.8882955,1803.8549813999998,1803.8882506999998,1803.8882506999998,1803.8719476999995,4.52,4.28,451,428,8,1.2,0.75,pic-absent,0,n,0.8430723000001308,None,,,,,sub-060,43.8,41.7,44.73,COM3,2025-07-21_10h27.52.891,2024_RDpaindiscrimination_maintask,2023.2.3,60.011726291313636,2025-07-21 10h28.14.676972 -0400,
1,0,1,0,,,,,3,0,3,0,,,,,3,0,3,0,1803.8882506999998,,,,,,,,,,,,,3,active,,,,,,,,,,,,,,,,,,1803.8724739999998,1808.8717729,1808.8717791999998,1808.8883682999995,1816.8718063999995,1816.8718063999995,1819.8383970999994,1819.8717477,1819.8717477,1819.8552200999993,4.48,4.32,448,432,8,1.2,0.75,pic-present,0,n,1.595079500000793,None,,,,,sub-060,43.8,41.7,44.73,COM3,2025-07-21_10h27.52.891,2024_RDpaindiscrimination_maintask,2023.2.3,60.011726291313636,2025-07-21 10h28.14.676972 -0400,
,,,,,,,,,,,,,,,,,,,,,,,,,,,,,,,,,,,,,,,,,,,,,,,,,,,,,,,,,,,,,,,,,,,,,,,,,,1819.8556468999996,1821.7720429,1821.7720641999995,1831.7719996999995,,,,,,,,,,,
