trials.thisRepN,trials.thisTrialN,trials.thisN,trials.thisIndex,loop_test.thisRepN,loop_test.thisTrialN,loop_test.thisN,loop_test.thisIndex,loop_eval_discri.thisRepN,loop_eval_discri.thisTrialN,loop_eval_discri.thisN,loop_eval_discri.thisIndex,loop_eval.thisRepN,loop_eval.thisTrialN,loop_eval.thisN,loop_eval.thisIndex,loop_discri.thisRepN,loop_discri.thisTrialN,loop_discri.thisN,loop_discri.thisIndex,thisRow.t,notes,Set_up.started,Set_up.stopped,electrode_check.started,electrode_check.stopped,instructions_eval.started,instructions_eval.stopped,pause_5_test.started,pause_5_test.stopped,Phase_Test.started,thermode_locali.started,Phase_Test.stopped,loca_thermode,condition,temp_trial_sent,eval_douleur.started,eval_douleur.stopped,ratingScale.response,ratingScale.rt,thermode_locali.stopped,Fin_test.started,text.started,Fin_test.stopped,pause_5_EVA.started,pause_5_EVA.stopped,tâche_EVA.started,thermode_locali_EVA.started,thermode_locali_EVA.stopped,tâche_EVA.stopped,instructions_discrim.started,instructions_discrim.stopped,pause_5_pic.started,pause_5_pic.stopped,tâche_PIC.started,thermode_locali_pic.started,percu_or.started,responser.started,thermode_locali_pic.stopped,percu_or.stopped,responser.stopped,tâche_PIC.stopped,dur_plateau1,dur_plateau2,dur_plateau1_sent,dur_plateau2_sent,start_plateau_2_resp,dur_pic,dur_rise,pic_presence,pic_response,discrimin_resp.keys,discrimin_resp.rt,discrimin_resp.duration,break_entre_bloc.started,break_entre_bloc.stopped,merci.started,merci.stopped,participant,temp_flat,temp_active,temp_pic_set,com_thermode,date,expName,psychopyVersion,frameRate,expStart,
0,0,0,0,0,0,0,0,,,,,,,,,,,,,140.9400958000001,,0.005185600000004342,139.05706280000004,139.05740379999997,139.77358559999993,139.7735931000002,140.92366459999994,140.92395299999998,145.92363690000002,145.92364289999978,145.9412038999999,157.94022069999983,0,inactive,44.7,157.94044729999996,162.60898039999984,27.00000000000019,4.645,,,,,,,,,,,,,,,,,,,,,,,,,,,,,,,,,,,,,,,sub-061,44.7,41.1,45.4,COM3,2025-07-31_08h56.23.618,2024_RDpaindiscrimination_maintask,2023.2.3,59.98908198703773,2025-07-31 08h56.37.776004 -0400,
0,0,0,0,1,0,1,0,,,,,,,,,,,,,162.62374820000014,,,,,,,,162.60988480000015,167.6072162999999,167.6072221999998,167.6236789999998,179.60748620000004,1,active,41.1,179.6076226,183.1757174999998,9.000000000000025,3.548,179.64049729999988,,,,,,,,,,,,,,,,,,,,,,,,,,,,,,,,,,,,,,sub-061,44.7,41.1,45.4,COM3,2025-07-31_08h56.23.618,2024_RDpaindiscrimination_maintask,2023.2.3,59.98908198703773,2025-07-31 08h56.37.776004 -0400,
0,0,0,0,2,0,2,0,,,,,,,,,,,,,183.1906359999998,,,,,,,,183.1767448999999,188.1740977999998,188.1741038,188.19067499999983,200.17438820000007,2,inactive,44.7,200.17453119999982,202.59243079999987,15.500000000000005,2.398,200.20744999999988,,,,,,,,,,,,,,,,,,,,,,,,,,,,,,,,,,,,,,sub-061,44.7,41.1,45.4,COM3,2025-07-31_08h56.23.618,2024_RDpaindiscrimination_maintask,2023.2.3,59.98908198703773,2025-07-31 08h56.37.776004 -0400,
0,0,0,0,3,0,3,0,,,,,,,,,,,,,202.60738630000014,,,,,,,,202.59323940000013,207.59100059999992,207.5910076,207.60754850000012,219.5913618999998,3,inactive,44.7,219.59150920000002,223.35912409999992,32.500000000000135,3.748,219.62433789999977,,,,,,,,,,,,,,,,,,,,,,,,,,,,,,,,,,,,,,sub-061,44.7,41.1,45.4,COM3,2025-07-31_08h56.23.618,2024_RDpaindiscrimination_maintask,2023.2.3,59.98908198703773,2025-07-31 08h56.37.776004 -0400,
0,0,0,0,4,0,4,0,,,,,,,,,,,,,223.37437339999997,,,,,,,,223.35985819999996,228.35783979999997,228.3578462999999,228.37442150000015,240.35817799999995,0,active,41.1,240.35831430000007,245.97704620000013,12.500000000000206,5.597,240.39119059999985,,,,,,,,,,,,,,,,,,,,,,,,,,,,,,,,,,,,,,sub-061,44.7,41.1,45.4,COM3,2025-07-31_08h56.23.618,2024_RDpaindiscrimination_maintask,2023.2.3,59.98908198703773,2025-07-31 08h56.37.776004 -0400,
0,0,0,0,5,0,5,0,,,,,,,,,,,,,245.99133949999987,,,,,,,,245.97777469999983,250.9747782999998,250.97478390000015,250.9913114000001,262.9751464000001,1,inactive,44.7,262.97528250000005,266.7437192000002,25.000000000000018,3.749,263.00814630000013,,,,,,,,,,,,,,,,,,,,,,,,,,,,,,,,,,,,,,sub-061,44.7,41.1,45.4,COM3,2025-07-31_08h56.23.618,2024_RDpaindiscrimination_maintask,2023.2.3,59.98908198703773,2025-07-31 08h56.37.776004 -0400,
0,0,0,0,6,0,6,0,,,,,,,,,,,,,266.7580997,,,,,,,,266.7445152,271.74171720000004,271.7417233000001,271.758249,283.74203080000007,2,active,41.1,283.74216590000015,288.0608658000001,20.500000000000107,4.298,283.77497730000005,,,,,,,,,,,,,,,,,,,,,,,,,,,,,,,,,,,,,,sub-061,44.7,41.1,45.4,COM3,2025-07-31_08h56.23.618,2024_RDpaindiscrimination_maintask,2023.2.3,59.98908198703773,2025-07-31 08h56.37.776004 -0400,
0,0,0,0,7,0,7,0,,,,,,,,,,,,,288.07507239999995,,,,,,,,288.0616248000001,293.0586472,293.05865270000004,293.07515520000015,305.0589716999998,3,active,41.1,305.0591101,308.4609725,24.00000000000002,3.382,305.0919531999998,,,,,,,,,,,,,,,,,,,,,,,,,,,,,,,,,,,,,,sub-061,44.7,41.1,45.4,COM3,2025-07-31_08h56.23.618,2024_RDpaindiscrimination_maintask,2023.2.3,59.98908198703773,2025-07-31 08h56.37.776004 -0400,
0,0,0,0,8,0,8,0,,,,,,,,,,,,,308.47535419999986,,,,,,,,308.46178120000013,313.4588712999998,313.45887760000005,313.47540530000015,325.4591783999999,0,inactive,44.7,325.45931740000015,328.29401289999987,43.50000000000006,2.815,325.4921132999998,,,,,,,,,,,,,,,,,,,,,,,,,,,,,,,,,,,,,,sub-061,44.7,41.1,45.4,COM3,2025-07-31_08h56.23.618,2024_RDpaindiscrimination_maintask,2023.2.3,59.98908198703773,2025-07-31 08h56.37.776004 -0400,
0,0,0,0,9,0,9,0,,,,,,,,,,,,,328.3088736999998,,,,,,,,328.2947792,333.29241550000006,333.2924223,333.30896010000015,345.2929356000004,1,active,41.1,345.29307510000035,347.1787561000001,20.0,1.865,345.3256530999997,,,,,,,,,,,,,,,,,,,,,,,,,,,,,,,,,,,,,,sub-061,44.7,41.1,45.4,COM3,2025-07-31_08h56.23.618,2024_RDpaindiscrimination_maintask,2023.2.3,59.98908198703773,2025-07-31 08h56.37.776004 -0400,
0,0,0,0,10,0,10,0,,,,,,,,,,,,,347.1924277999997,,,,,,,,347.1795481999998,352.1759302999999,352.17593599999964,352.1924104999998,364.1762792999998,2,active,41.1,364.1764148000002,367.34435459999986,13.000000000000064,3.147,364.2093455000004,,,,,,,,,,,,,,,,,,,,,,,,,,,,,,,,,,,,,,sub-061,44.7,41.1,45.4,COM3,2025-07-31_08h56.23.618,2024_RDpaindiscrimination_maintask,2023.2.3,59.98908198703773,2025-07-31 08h56.37.776004 -0400,
0,0,0,0,11,0,11,0,,,,,,,,,,,,,367.3593314,,,,,,,,367.34510820000014,372.34286599999996,372.3428721999999,372.3594174,384.3431198999997,3,inactive,44.7,384.3432579,389.1952865000003,38.000000000000014,4.832,384.37620549999974,,,,,,,,,,,,,,,,,,,,,,,,,,,,,,,,,,,,,,sub-061,44.7,41.1,45.4,COM3,2025-07-31_08h56.23.618,2024_RDpaindiscrimination_maintask,2023.2.3,59.98908198703773,2025-07-31 08h56.37.776004 -0400,
0,0,0,0,12,0,12,0,,,,,,,,,,,,,389.2095413999996,,,,,,,,389.19603240000015,394.19308939999974,394.1930947999999,394.20963010000014,406.1934471000004,0,active,41.1,406.1935824000002,411.37897859999975,13.500000000000172,5.165,406.2263820999997,,,,,,,,,,,,,,,,,,,,,,,,,,,,,,,,,,,,,,sub-061,44.7,41.1,45.4,COM3,2025-07-31_08h56.23.618,2024_RDpaindiscrimination_maintask,2023.2.3,59.98908198703773,2025-07-31 08h56.37.776004 -0400,
0,0,0,0,13,0,13,0,,,,,,,,,,,,,411.393051,,,,,,,,411.3794740000003,416.37670009999965,416.37670590000016,416.3932007000003,428.37694120000015,1,inactive,44.7,428.3770776000001,430.76234620000014,32.49999999999999,2.365,428.40996499999983,,,,,,,,,,,,,,,,,,,,,,,,,,,,,,,,,,,,,,sub-061,44.7,41.1,45.4,COM3,2025-07-31_08h56.23.618,2024_RDpaindiscrimination_maintask,2023.2.3,59.98908198703773,2025-07-31 08h56.37.776004 -0400,
0,0,0,0,14,0,14,0,,,,,,,,,,,,,430.7766351999999,,,,,,,,430.76312169999983,435.76018829999975,435.76019429999997,435.77671649999957,447.76047259999996,2,inactive,44.7,447.7606089000001,452.0294163999997,47.00000000000004,4.249,447.7935580000003,,,,,,,,,,,,,,,,,,,,,,,,,,,,,,,,,,,,,,sub-061,44.7,41.1,45.4,COM3,2025-07-31_08h56.23.618,2024_RDpaindiscrimination_maintask,2023.2.3,59.98908198703773,2025-07-31 08h56.37.776004 -0400,
0,0,0,0,15,0,15,0,,,,,,,,,,,,,452.04363509999985,,,,,,,,452.0301988000001,457.02710730000035,457.0271137,457.04362969999966,469.02730489999976,3,active,41.1,469.0274478000001,472.3301141000002,12.000000000000028,3.282,469.0603143999997,,,,,,,,,,,,,,,,,,,,,,,,,,,,,,,,,,,,,,sub-061,44.7,41.1,45.4,COM3,2025-07-31_08h56.23.618,2024_RDpaindiscrimination_maintask,2023.2.3,59.98908198703773,2025-07-31 08h56.37.776004 -0400,
0,0,0,0,,,,,0,0,0,0,0,0,0,0,,,,,504.310845,,,,,,502.6113611999999,504.2943839999998,,,,,,0,inactive,44.7,521.2946964000002,526.6796463999999,28.500000000000185,5.365,,472.3306620000003,472.3438635000002,502.6110388999996,504.2946625000004,509.2943713000004,509.29437770000004,509.31089619999966,521.3277061999997,521.2946877000004,,,,,,,,,,,,,,,,,,,,,,,,,,,,,sub-061,44.7,41.1,45.4,COM3,2025-07-31_08h56.23.618,2024_RDpaindiscrimination_maintask,2023.2.3,59.98908198703773,2025-07-31 08h56.37.776004 -0400,
0,0,0,0,,,,,0,0,0,0,1,0,1,0,,,,,526.6944061000004,,,,,,,,,,,,,1,active,44.7,543.6783065,546.3800926000004,45.99999999999998,2.682,,,,,526.6804112999998,531.6779733000003,531.6779798999996,531.6945063000003,543.7113442,543.6782982000004,,,,,,,,,,,,,,,,,,,,,,,,,,,,,sub-061,44.7,41.1,45.4,COM3,2025-07-31_08h56.23.618,2024_RDpaindiscrimination_maintask,2023.2.3,59.98908198703773,2025-07-31 08h56.37.776004 -0400,
0,0,0,0,,,,,0,0,0,0,,,,,0,0,0,0,548.2613246999999,,,,,,,,,,,,,2,active,,,,,,,,,,,,,,,,546.3805905999998,548.2449306999997,548.2452243999996,553.2448961,553.2449047,553.2613385000004,561.2448341999998,561.2448341999998,564.2114572,564.2448496999996,564.2448496999996,564.2282734999999,4.45,4.35,445,434,8,1.2,0.75,pic-absent,0,m,1.5374502000004213,None,,,,,sub-061,44.7,41.1,45.4,COM3,2025-07-31_08h56.23.618,2024_RDpaindiscrimination_maintask,2023.2.3,59.98908198703773,2025-07-31 08h56.37.776004 -0400,
0,0,0,0,,,,,0,0,0,0,,,,,1,0,1,0,564.2448496999996,,,,,,,,,,,,,3,inactive,,,,,,,,,,,,,,,,,,564.2289001999998,569.2283678000003,569.2283742999998,569.2448420999999,577.2283201,577.2283201,580.1949622000002,580.2283004000001,580.2283004000001,580.2118498,4.23,4.57,423,457,8,1.2,0.75,pic-absent,1,n,1.657294699999511,None,,,,,sub-061,44.7,41.1,45.4,COM3,2025-07-31_08h56.23.618,2024_RDpaindiscrimination_maintask,2023.2.3,59.98908198703773,2025-07-31 08h56.37.776004 -0400,
0,0,0,0,,,,,0,0,0,0,,,,,2,0,2,0,580.2283004000001,,,,,,,,,,,,,0,active,,,,,,,,,,,,,,,,,,580.2122878,585.2118627999998,585.2118696999996,585.2283948000004,593.2118490000003,593.2118490000003,596.1785882000004,596.2119038999999,596.2119038999999,596.1953197000003,3.65,5.15,365,515,8,1.2,0.75,pic-present,1,n,1.5901625999995304,None,,,,,sub-061,44.7,41.1,45.4,COM3,2025-07-31_08h56.23.618,2024_RDpaindiscrimination_maintask,2023.2.3,59.98908198703773,2025-07-31 08h56.37.776004 -0400,
0,0,0,0,,,,,0,0,0,0,,,,,3,0,3,0,596.2119038999999,,,,,,,,,,,,,1,inactive,,,,,,,,,,,,,,,,,,596.1957886999999,601.1954103999997,601.1954175999999,601.2119436000003,609.1952994000003,609.1952994000003,612.1620618999996,612.1953541000003,612.1953541000003,612.1788459999998,4.28,4.52,428,451,8,1.2,0.75,pic-absent,0,m,1.586549699999523,None,,,,,sub-061,44.7,41.1,45.4,COM3,2025-07-31_08h56.23.618,2024_RDpaindiscrimination_maintask,2023.2.3,59.98908198703773,2025-07-31 08h56.37.776004 -0400,
0,0,0,0,,,,,1,0,1,0,0,0,0,0,,,,,613.3620761000002,,,,,,612.1793864000001,613.3456311,,,,,,2,active,44.7,630.3459319000003,633.1970788999997,32.49999999999996,2.831,,,,,613.3459274999996,618.3456070000002,618.3456136000004,618.3621786000003,630.3789333000004,630.3459235,,,,,,,,,,,,,,,,,,,,,,,,,,,,,sub-061,44.7,41.1,45.4,COM3,2025-07-31_08h56.23.618,2024_RDpaindiscrimination_maintask,2023.2.3,59.98908198703773,2025-07-31 08h56.37.776004 -0400,
0,0,0,0,,,,,1,0,1,0,1,0,1,0,,,,,633.2122392000001,,,,,,,,,,,,,3,inactive,44.7,650.1961844999996,653.1984189000004,40.00000000000007,2.921,,,,,633.1977951999997,638.1958401000002,638.1958468000003,638.2123701,650.2962958999997,650.1961768000001,,,,,,,,,,,,,,,,,,,,,,,,,,,,,sub-061,44.7,41.1,45.4,COM3,2025-07-31_08h56.23.618,2024_RDpaindiscrimination_maintask,2023.2.3,59.98908198703773,2025-07-31 08h56.37.776004 -0400,
0,0,0,0,,,,,1,0,1,0,,,,,0,0,0,0,654.5958767000002,,,,,,,,,,,,,0,active,,,,,,,,,,,,,,,,653.1989285999998,654.5794617000001,654.5797691999996,659.5793744000002,659.5793815999996,659.5959077999996,667.5793667999997,667.5793667999997,670.5460607000005,670.5794047999998,670.5794047999998,670.5628833000001,4.01,4.79,401,479,8,1.2,0.75,pic-present,1,n,1.4303270999998858,None,,,,,sub-061,44.7,41.1,45.4,COM3,2025-07-31_08h56.23.618,2024_RDpaindiscrimination_maintask,2023.2.3,59.98908198703773,2025-07-31 08h56.37.776004 -0400,
0,0,0,0,,,,,1,0,1,0,,,,,1,0,1,0,670.5794047999998,,,,,,,,,,,,,1,active,,,,,,,,,,,,,,,,,,670.5634352999996,675.5628587000001,675.5628654000002,675.5794106000003,683.5627943999998,683.5627943999998,686.5295304000001,686.5629058000004,686.5629058000004,686.5464267999996,4.1,4.7,409,470,8,1.2,0.75,pic-absent,0,m,1.3272109999998065,None,,,,,sub-061,44.7,41.1,45.4,COM3,2025-07-31_08h56.23.618,2024_RDpaindiscrimination_maintask,2023.2.3,59.98908198703773,2025-07-31 08h56.37.776004 -0400,
0,0,0,0,,,,,1,0,1,0,,,,,2,0,2,0,686.5629058000004,,,,,,,,,,,,,2,inactive,,,,,,,,,,,,,,,,,,686.5468827000004,691.5463719999998,691.5463791000002,691.5628557,699.5464554999999,699.5464554999999,702.5130660000004,702.5464216,702.5464216,702.5298752999997,3.42,5.38,342,538,8,1.2,0.75,pic-absent,0,m,1.3879948000003424,None,,,,,sub-061,44.7,41.1,45.4,COM3,2025-07-31_08h56.23.618,2024_RDpaindiscrimination_maintask,2023.2.3,59.98908198703773,2025-07-31 08h56.37.776004 -0400,
0,0,0,0,,,,,1,0,1,0,,,,,3,0,3,0,702.5464216,,,,,,,,,,,,,3,active,,,,,,,,,,,,,,,,,,702.5303584000003,707.5299347999999,707.5299418000004,707.5464739999998,715.5298730000004,715.5298730000004,718.4966163999998,718.5299558999995,718.5299558999995,718.5134655000002,3.83,4.97,383,497,8,1.2,0.75,pic-present,1,n,1.9563288999997894,None,,,,,sub-061,44.7,41.1,45.4,COM3,2025-07-31_08h56.23.618,2024_RDpaindiscrimination_maintask,2023.2.3,59.98908198703773,2025-07-31 08h56.37.776004 -0400,
0,0,0,0,,,,,2,0,2,0,0,0,0,0,,,,,719.579917,,,,,,718.5139847999999,719.5635608000002,,,,,,0,active,44.7,736.5638214999999,740.3652436000002,37.500000000000114,3.781,,,,,719.5638624000003,724.5635494999997,724.5635560999999,724.5800219000002,736.5968165000004,736.5638134000001,,,,,,,,,,,,,,,,,,,,,,,,,,,,,sub-061,44.7,41.1,45.4,COM3,2025-07-31_08h56.23.618,2024_RDpaindiscrimination_maintask,2023.2.3,59.98908198703773,2025-07-31 08h56.37.776004 -0400,
0,0,0,0,,,,,2,0,2,0,1,0,1,0,,,,,740.3802464,,,,,,,,,,,,,1,inactive,44.7,757.3641661000001,761.1661660999998,38.00000000000015,3.783,,,,,740.3660175000005,745.3637816,745.3637877000001,745.3802484999997,757.3970529999997,757.3641576,,,,,,,,,,,,,,,,,,,,,,,,,,,,,sub-061,44.7,41.1,45.4,COM3,2025-07-31_08h56.23.618,2024_RDpaindiscrimination_maintask,2023.2.3,59.98908198703773,2025-07-31 08h56.37.776004 -0400,
0,0,0,0,,,,,2,0,2,0,,,,,0,0,0,0,762.4804468000002,,,,,,,,,,,,,2,inactive,,,,,,,,,,,,,,,,761.1666779999996,762.4640304000004,762.4643463000002,767.4638556,767.4638618999998,767.4803844999997,775.4638379999997,775.4638379999997,778.4305934000004,778.46396,778.46396,778.4473877,4.66,4.14,466,413,8,1.2,0.75,pic-absent,0,m,1.4388879000007364,None,,,,,sub-061,44.7,41.1,45.4,COM3,2025-07-31_08h56.23.618,2024_RDpaindiscrimination_maintask,2023.2.3,59.98908198703773,2025-07-31 08h56.37.776004 -0400,
0,0,0,0,,,,,2,0,2,0,,,,,1,0,1,0,778.46396,,,,,,,,,,,,,3,active,,,,,,,,,,,,,,,,,,778.4480153000004,783.4475045999998,783.4475106999998,783.4640086999998,791.4473725999997,791.4473725999997,794.4141098,794.4474410000003,794.4474410000003,794.4309590000003,4.28,4.52,428,451,8,1.2,0.75,pic-present,0,m,1.3950354999997217,None,,,,,sub-061,44.7,41.1,45.4,COM3,2025-07-31_08h56.23.618,2024_RDpaindiscrimination_maintask,2023.2.3,59.98908198703773,2025-07-31 08h56.37.776004 -0400,
0,0,0,0,,,,,2,0,2,0,,,,,2,0,2,0,794.4474410000003,,,,,,,,,,,,,0,inactive,,,,,,,,,,,,,,,,,,794.4314297999999,799.4309682000003,799.4309751999999,799.4475048000004,807.4309579999999,807.4309579999999,810.3975277,810.4308696999997,810.4308696999997,810.4145003000003,4.61,4.19,461,419,8,1.2,0.75,pic-present,1,n,1.3797814999998081,None,,,,,sub-061,44.7,41.1,45.4,COM3,2025-07-31_08h56.23.618,2024_RDpaindiscrimination_maintask,2023.2.3,59.98908198703773,2025-07-31 08h56.37.776004 -0400,
0,0,0,0,,,,,2,0,2,0,,,,,3,0,3,0,810.4308696999997,,,,,,,,,,,,,1,active,,,,,,,,,,,,,,,,,,810.4149613,815.4144761999996,815.4144827999999,815.4310103999996,823.4144348,823.4144348,826.3811312999997,826.4144712999996,826.4144712999996,826.3979847,3.6,5.2,360,520,8,1.2,0.75,pic-absent,0,m,1.2408901999997397,None,,,,,sub-061,44.7,41.1,45.4,COM3,2025-07-31_08h56.23.618,2024_RDpaindiscrimination_maintask,2023.2.3,59.98908198703773,2025-07-31 08h56.37.776004 -0400,
0,0,0,0,,,,,3,0,3,0,0,0,0,0,,,,,828.0811936,,,,,,826.3985673999996,828.0647453000001,,,,,,2,inactive,44.7,845.0650296000003,848.1831499999998,35.500000000000085,3.099,,,,,828.0650401000003,833.0646751000004,833.0646810999997,833.0812088000002,845.0980343000001,845.0650189999997,,,,,,,,,,,,,,,,,,,,,,,,,,,,,sub-061,44.7,41.1,45.4,COM3,2025-07-31_08h56.23.618,2024_RDpaindiscrimination_maintask,2023.2.3,59.98908198703773,2025-07-31 08h56.37.776004 -0400,
0,0,0,0,,,,,3,0,3,0,1,0,1,0,,,,,848.1980921000004,,,,,,,,,,,,,3,active,44.7,865.1818376000001,868.9332869999998,47.99999999999998,3.731,,,,,848.1838807000004,853.1816228999996,853.1816295999997,853.1980952000004,865.2148293999999,865.1818291,,,,,,,,,,,,,,,,,,,,,,,,,,,,,sub-061,44.7,41.1,45.4,COM3,2025-07-31_08h56.23.618,2024_RDpaindiscrimination_maintask,2023.2.3,59.98908198703773,2025-07-31 08h56.37.776004 -0400,
0,0,0,0,,,,,3,0,3,0,,,,,0,0,0,0,870.1982117999996,,,,,,,,,,,,,0,inactive,,,,,,,,,,,,,,,,868.9338516999997,870.1818480000002,870.1821566999997,875.1817382999998,875.1817450999997,875.1982718999998,883.1817262000004,883.1817262000004,886.1483977999997,886.1817327999997,886.1817327999997,886.1651996999999,4.58,4.22,458,422,8,1.2,0.75,pic-present,1,n,1.4318773000004512,None,,,,,sub-061,44.7,41.1,45.4,COM3,2025-07-31_08h56.23.618,2024_RDpaindiscrimination_maintask,2023.2.3,59.98908198703773,2025-07-31 08h56.37.776004 -0400,
0,0,0,0,,,,,3,0,3,0,,,,,1,0,1,0,886.1817327999997,,,,,,,,,,,,,1,inactive,,,,,,,,,,,,,,,,,,886.1657259000003,891.1652606999996,891.1652679999997,891.1817859000002,899.1653370000004,899.1653370000004,902.1319061000004,902.1652465999996,902.1652465999996,902.1487465999999,4.25,4.55,425,455,8,1.2,0.75,pic-present,0,m,1.4168007000007492,None,,,,,sub-061,44.7,41.1,45.4,COM3,2025-07-31_08h56.23.618,2024_RDpaindiscrimination_maintask,2023.2.3,59.98908198703773,2025-07-31 08h56.37.776004 -0400,
0,0,0,0,,,,,3,0,3,0,,,,,2,0,2,0,902.1652465999996,,,,,,,,,,,,,2,active,,,,,,,,,,,,,,,,,,902.1491937000001,907.1487925000001,907.1487993999999,907.1652991000001,915.1488372000003,915.1488372000003,918.1154300999997,918.1487595999997,918.1487595999997,918.1324129000004,4.3,4.5,430,450,8,1.2,0.75,pic-absent,0,m,1.3811373000007734,None,,,,,sub-061,44.7,41.1,45.4,COM3,2025-07-31_08h56.23.618,2024_RDpaindiscrimination_maintask,2023.2.3,59.98908198703773,2025-07-31 08h56.37.776004 -0400,
0,0,0,0,,,,,3,0,3,0,,,,,3,0,3,0,918.1487595999997,,,,,,,,,,,,,3,inactive,,,,,,,,,,,,,,,,,,918.1328591000001,923.1323155,923.1323233000003,923.2155665,931.1323627000002,931.1323627000002,934.1655712000002,934.1323539000005,934.1323539000005,934.1491132000001,3.83,4.97,383,497,8,1.2,0.75,pic-present,1,n,1.5668836000004376,None,,,,,sub-061,44.7,41.1,45.4,COM3,2025-07-31_08h56.23.618,2024_RDpaindiscrimination_maintask,2023.2.3,59.98908198703773,2025-07-31 08h56.37.776004 -0400,
1,0,1,0,0,0,0,0,,,,,,,,,,,,,946.3990758999998,,,,944.3828905999999,945.6160123,945.6160203,946.3826244000002,946.3829139,951.3826429999999,951.3826497999999,951.3991669999996,963.3827880999997,0,active,41.1,963.3830283999996,966.2357080000002,13.999999999999995,2.829,,,,,,,,,,,,,,,,,,,,,,,,,,,,,,,,,,,934.1495599,944.3827676999999,,,sub-061,44.7,41.1,45.4,COM3,2025-07-31_08h56.23.618,2024_RDpaindiscrimination_maintask,2023.2.3,59.98908198703773,2025-07-31 08h56.37.776004 -0400,
1,0,1,0,1,0,1,0,,,,,,,,,,,,,966.2494082000003,,,,,,,,966.2368641000003,971.2329040000004,971.2329096000003,971.2493954000001,983.2332598000003,1,inactive,44.7,983.2334004000004,987.5181288000003,20.000000000000142,4.264,983.2662828000002,,,,,,,,,,,,,,,,,,,,,,,,,,,,,,,,,,,,,,sub-061,44.7,41.1,45.4,COM3,2025-07-31_08h56.23.618,2024_RDpaindiscrimination_maintask,2023.2.3,59.98908198703773,2025-07-31 08h56.37.776004 -0400,
1,0,1,0,2,0,2,0,,,,,,,,,,,,,987.5329820999996,,,,,,,,987.5183737999996,992.5164224,992.5164285000001,992.5329334999997,1004.5168254999999,2,inactive,44.7,1004.5169714000003,1006.7182086000003,38.99999999999997,2.181,1004.5497799000004,,,,,,,,,,,,,,,,,,,,,,,,,,,,,,,,,,,,,,sub-061,44.7,41.1,45.4,COM3,2025-07-31_08h56.23.618,2024_RDpaindiscrimination_maintask,2023.2.3,59.98908198703773,2025-07-31 08h56.37.776004 -0400,
1,0,1,0,3,0,3,0,,,,,,,,,,,,,1006.7332233999996,,,,,,,,1006.7189601999999,1011.7166783000002,1011.7166843000005,1011.7331851999998,1023.7170686,3,active,41.1,1023.7172112999997,1028.2695039,10.000000000000071,4.532,1023.7501144999997,,,,,,,,,,,,,,,,,,,,,,,,,,,,,,,,,,,,,,sub-061,44.7,41.1,45.4,COM3,2025-07-31_08h56.23.618,2024_RDpaindiscrimination_maintask,2023.2.3,59.98908198703773,2025-07-31 08h56.37.776004 -0400,
1,0,1,0,4,0,4,0,,,,,,,,,,,,,1028.2835285,,,,,,,,1028.2702594000002,1033.2669303000002,1033.2669365000002,1033.2834682000002,1045.2673599999998,0,inactive,44.7,1045.2674980000002,1048.2199283,23.499999999999996,2.932,1045.3002745000003,,,,,,,,,,,,,,,,,,,,,,,,,,,,,,,,,,,,,,sub-061,44.7,41.1,45.4,COM3,2025-07-31_08h56.23.618,2024_RDpaindiscrimination_maintask,2023.2.3,59.98908198703773,2025-07-31 08h56.37.776004 -0400,
1,0,1,0,5,0,5,0,,,,,,,,,,,,,1048.2336844000001,,,,,,,,1048.2207152,1053.2171746000004,1053.2171809000001,1053.2336975999997,1065.2174661999998,1,active,41.1,1065.2176053000003,1069.0521761,12.0000000000001,3.815,1065.2507828999996,,,,,,,,,,,,,,,,,,,,,,,,,,,,,,,,,,,,,,sub-061,44.7,41.1,45.4,COM3,2025-07-31_08h56.23.618,2024_RDpaindiscrimination_maintask,2023.2.3,59.98908198703773,2025-07-31 08h56.37.776004 -0400,
1,0,1,0,6,0,6,0,,,,,,,,,,,,,1069.0672210000002,,,,,,,,1069.053006,1074.0507832000003,1074.0507888000002,1074.0673285000003,1086.0510838,2,inactive,44.7,1086.0512239,1090.3527502999996,35.500000000000156,4.282,1086.0841080999999,,,,,,,,,,,,,,,,,,,,,,,,,,,,,,,,,,,,,,sub-061,44.7,41.1,45.4,COM3,2025-07-31_08h56.23.618,2024_RDpaindiscrimination_maintask,2023.2.3,59.98908198703773,2025-07-31 08h56.37.776004 -0400,
1,0,1,0,7,0,7,0,,,,,,,,,,,,,1090.3674087,,,,,,,,1090.3535425,1095.3510028,1095.3510084,1095.3675242999998,1107.3512658,3,active,41.1,1107.3514050000003,1111.969693,20.500000000000178,4.598,1107.3843875000002,,,,,,,,,,,,,,,,,,,,,,,,,,,,,,,,,,,,,,sub-061,44.7,41.1,45.4,COM3,2025-07-31_08h56.23.618,2024_RDpaindiscrimination_maintask,2023.2.3,59.98908198703773,2025-07-31 08h56.37.776004 -0400,
1,0,1,0,8,0,8,0,,,,,,,,,,,,,1111.9843313000001,,,,,,,,1111.9704922,1116.9678333000002,1116.9678393000004,1116.9843873999998,1128.9682300000004,0,active,41.1,1128.9683708000002,1132.5198965999998,4.000000000000058,3.532,1129.0012669999996,,,,,,,,,,,,,,,,,,,,,,,,,,,,,,,,,,,,,,sub-061,44.7,41.1,45.4,COM3,2025-07-31_08h56.23.618,2024_RDpaindiscrimination_maintask,2023.2.3,59.98908198703773,2025-07-31 08h56.37.776004 -0400,
1,0,1,0,9,0,9,0,,,,,,,,,,,,,1132.5346256000003,,,,,,,,1132.5206269999999,1137.5181386000004,1137.5181444999998,1137.5346569000003,1149.5184749,1,inactive,44.7,1149.5186155000001,1154.4367081999999,20.500000000000078,4.898,1149.5515971000004,,,,,,,,,,,,,,,,,,,,,,,,,,,,,,,,,,,,,,sub-061,44.7,41.1,45.4,COM3,2025-07-31_08h56.23.618,2024_RDpaindiscrimination_maintask,2023.2.3,59.98908198703773,2025-07-31 08h56.37.776004 -0400,
1,0,1,0,10,0,10,0,,,,,,,,,,,,,1154.4515629999996,,,,,,,,1154.4374983999996,1159.4350096999997,1159.4350157,1159.4516027999998,1171.4352980000003,2,active,41.1,1171.4354341999997,1176.3047623000002,20.000000000000078,4.849,1171.4683510000004,,,,,,,,,,,,,,,,,,,,,,,,,,,,,,,,,,,,,,sub-061,44.7,41.1,45.4,COM3,2025-07-31_08h56.23.618,2024_RDpaindiscrimination_maintask,2023.2.3,59.98908198703773,2025-07-31 08h56.37.776004 -0400,
1,0,1,0,11,0,11,0,,,,,,,,,,,,,1176.3184801999996,,,,,,,,1176.3055725000004,1181.3019906,1181.3019967999999,1181.3185144999998,1193.3023082999998,3,inactive,44.7,1193.3024655999998,1196.137095,32.50000000000003,2.814,1193.3353137000004,,,,,,,,,,,,,,,,,,,,,,,,,,,,,,,,,,,,,,sub-061,44.7,41.1,45.4,COM3,2025-07-31_08h56.23.618,2024_RDpaindiscrimination_maintask,2023.2.3,59.98908198703773,2025-07-31 08h56.37.776004 -0400,
1,0,1,0,12,0,12,0,,,,,,,,,,,,,1196.1520226000002,,,,,,,,1196.1378831000002,1201.1354804000002,1201.1354872000002,1201.1519949000003,1213.1358926000003,0,inactive,44.7,1213.1360316999999,1218.2209284,46.000000000000085,5.064,1213.1689324,,,,,,,,,,,,,,,,,,,,,,,,,,,,,,,,,,,,,,sub-061,44.7,41.1,45.4,COM3,2025-07-31_08h56.23.618,2024_RDpaindiscrimination_maintask,2023.2.3,59.98908198703773,2025-07-31 08h56.37.776004 -0400,
1,0,1,0,13,0,13,0,,,,,,,,,,,,,1218.2355693999998,,,,,,,,1218.2216667000002,1223.2190315999997,1223.2190379000003,1223.2355559999996,1235.2194041000002,1,active,41.1,1235.2195426999997,1240.3713183,8.500000000000203,5.132,1235.2523731,,,,,,,,,,,,,,,,,,,,,,,,,,,,,,,,,,,,,,sub-061,44.7,41.1,45.4,COM3,2025-07-31_08h56.23.618,2024_RDpaindiscrimination_maintask,2023.2.3,59.98908198703773,2025-07-31 08h56.37.776004 -0400,
1,0,1,0,14,0,14,0,,,,,,,,,,,,,1240.3858271999998,,,,,,,,1240.3720672,1245.3693371,1245.3693429000004,1245.3858695999998,1257.3696682,2,active,41.1,1257.3698052999998,1261.8058959,12.5000000000001,4.416,1257.4026825,,,,,,,,,,,,,,,,,,,,,,,,,,,,,,,,,,,,,,sub-061,44.7,41.1,45.4,COM3,2025-07-31_08h56.23.618,2024_RDpaindiscrimination_maintask,2023.2.3,59.98908198703773,2025-07-31 08h56.37.776004 -0400,
1,0,1,0,15,0,15,0,,,,,,,,,,,,,1261.8195821999998,,,,,,,,1261.8066847,1266.8028989000004,1266.8029051000003,1266.8194147000004,1278.8032904000002,3,inactive,44.7,1278.8034288,1284.3396280999996,27.500000000000053,5.516,1278.836287,,,,,,,,,,,,,,,,,,,,,,,,,,,,,,,,,,,,,,sub-061,44.7,41.1,45.4,COM3,2025-07-31_08h56.23.618,2024_RDpaindiscrimination_maintask,2023.2.3,59.98908198703773,2025-07-31 08h56.37.776004 -0400,
1,0,1,0,,,,,0,0,0,0,0,0,0,0,,,,,1287.4197524,,,,,,1286.0870064,1287.4032815,,,,,,0,active,44.7,1304.4033519000004,1308.2887934999999,32.000000000000036,3.865,,1284.3402255,1284.3529621999996,1286.0866671000003,1287.4035538999997,1292.4032741,1292.4032800000004,1292.4198035999998,,1304.4033429,,,,,,,,,,,,,,,,,,,,,,,,,,,,,sub-061,44.7,41.1,45.4,COM3,2025-07-31_08h56.23.618,2024_RDpaindiscrimination_maintask,2023.2.3,59.98908198703773,2025-07-31 08h56.37.776004 -0400,
1,0,1,0,,,,,0,0,0,0,1,0,1,0,,,,,1308.3033575,,,,,,,,,,,,,1,inactive,44.7,1325.2871532,1327.0731548000003,40.0,1.766,,,,,1308.289022,1313.2868858000002,1313.2868925000002,1313.3033642,1325.3200352000003,1325.2871433999999,,,,,,,,,,,,,,,,,,,,,,,,,,,,,sub-061,44.7,41.1,45.4,COM3,2025-07-31_08h56.23.618,2024_RDpaindiscrimination_maintask,2023.2.3,59.98908198703773,2025-07-31 08h56.37.776004 -0400,
1,0,1,0,,,,,0,0,0,0,,,,,0,0,0,0,1328.4702053,,,,,,,,,,,,,2,active,,,,,,,,,,,,,,,,1327.0737095000004,1328.4537824999998,1328.4541028000003,1333.4537247999997,1333.4537312000002,1333.4702611000002,1341.4536662,1341.4536662,1344.4203793999995,1344.4537167999997,1344.4537167999997,1344.4372261999997,3.42,5.38,342,538,8,1.2,0.75,pic-absent,0,m,1.6079971999997724,None,,,,,sub-061,44.7,41.1,45.4,COM3,2025-07-31_08h56.23.618,2024_RDpaindiscrimination_maintask,2023.2.3,59.98908198703773,2025-07-31 08h56.37.776004 -0400,
1,0,1,0,,,,,0,0,0,0,,,,,1,0,1,0,1344.4537167999997,,,,,,,,,,,,,3,active,,,,,,,,,,,,,,,,,,1344.4378150000002,1349.4372351000002,1349.4372421999997,1349.4537766000003,1357.4371686000004,1357.4371686000004,1360.4037457000004,1360.4371442000001,1360.4371442000001,1360.4205769,3.7,5.1,370,509,8,1.2,0.75,pic-absent,0,m,1.5045170999992479,None,,,,,sub-061,44.7,41.1,45.4,COM3,2025-07-31_08h56.23.618,2024_RDpaindiscrimination_maintask,2023.2.3,59.98908198703773,2025-07-31 08h56.37.776004 -0400,
1,0,1,0,,,,,0,0,0,0,,,,,2,0,2,0,1360.4371442000001,,,,,,,,,,,,,0,inactive,,,,,,,,,,,,,,,,,,1360.4210235,1365.4206059999997,1365.4206123000004,1365.4371411000002,1373.4207214999997,1373.4207214999997,1376.3873789999998,1376.4206851,1376.4206851,1376.4042040000004,3.47,5.33,347,533,8,1.2,0.75,pic-present,0,m,1.2208296999997401,None,,,,,sub-061,44.7,41.1,45.4,COM3,2025-07-31_08h56.23.618,2024_RDpaindiscrimination_maintask,2023.2.3,59.98908198703773,2025-07-31 08h56.37.776004 -0400,
1,0,1,0,,,,,0,0,0,0,,,,,3,0,3,0,1376.4206851,,,,,,,,,,,,,1,active,,,,,,,,,,,,,,,,,,1376.4046472999999,1381.4042306000001,1381.4042378000004,1381.4207740000002,1389.4042000999998,1389.4042000999998,1392.3708150000002,1392.4041322000003,1392.4041322000003,1392.3875982999998,3.33,5.47,333,547,8,1.2,0.75,pic-present,1,n,1.3498918000004778,None,,,,,sub-061,44.7,41.1,45.4,COM3,2025-07-31_08h56.23.618,2024_RDpaindiscrimination_maintask,2023.2.3,59.98908198703773,2025-07-31 08h56.37.776004 -0400,
1,0,1,0,,,,,1,0,1,0,0,0,0,0,,,,,1394.0708252000004,,,,,,1392.3881038999998,1394.0545038,,,,,,2,inactive,44.7,1411.0547845,1414.5742993000003,46.50000000000012,3.5,,,,,1394.0548108000003,1399.0543331,1399.0543398999998,1399.0708539999996,1411.0876643000001,1411.0547767999997,,,,,,,,,,,,,,,,,,,,,,,,,,,,,sub-061,44.7,41.1,45.4,COM3,2025-07-31_08h56.23.618,2024_RDpaindiscrimination_maintask,2023.2.3,59.98908198703773,2025-07-31 08h56.37.776004 -0400,
1,0,1,0,,,,,1,0,1,0,1,0,1,0,,,,,1414.5877942999996,,,,,,,,,,,,,3,active,44.7,1431.5716842000002,1435.789777,30.000000000000178,4.199,,,,,1414.5750936000004,1419.5713669999996,1419.5713734,1419.5879044000003,1431.6047166999997,1431.5716767000004,,,,,,,,,,,,,,,,,,,,,,,,,,,,,sub-061,44.7,41.1,45.4,COM3,2025-07-31_08h56.23.618,2024_RDpaindiscrimination_maintask,2023.2.3,59.98908198703773,2025-07-31 08h56.37.776004 -0400,
1,0,1,0,,,,,1,0,1,0,,,,,0,0,0,0,1437.1714258000002,,,,,,,,,,,,,0,inactive,,,,,,,,,,,,,,,,1435.7903419000004,1437.1549795,1437.1552977000001,1442.1549483999997,1442.1549548000003,1442.1714728999996,1450.1548399000003,1450.1548399000003,1453.1215045999998,1453.1548338000002,1453.1548338000002,1453.1384234999996,4.1,4.7,409,470,8,1.2,0.75,pic-absent,0,m,1.4796865000007529,None,,,,,sub-061,44.7,41.1,45.4,COM3,2025-07-31_08h56.23.618,2024_RDpaindiscrimination_maintask,2023.2.3,59.98908198703773,2025-07-31 08h56.37.776004 -0400,
1,0,1,0,,,,,1,0,1,0,,,,,1,0,1,0,1453.1548338000002,,,,,,,,,,,,,1,inactive,,,,,,,,,,,,,,,,,,1453.1389835,1458.1383604000002,1458.1383674999997,1458.1548861,1466.138414,1466.138414,1469.1050535000004,1469.1383759999999,1469.1383759999999,1469.1219537999996,4.39,4.41,438,441,8,1.2,0.75,pic-present,1,n,1.3922914000004312,None,,,,,sub-061,44.7,41.1,45.4,COM3,2025-07-31_08h56.23.618,2024_RDpaindiscrimination_maintask,2023.2.3,59.98908198703773,2025-07-31 08h56.37.776004 -0400,
1,0,1,0,,,,,1,0,1,0,,,,,2,0,2,0,1469.1383759999999,,,,,,,,,,,,,2,active,,,,,,,,,,,,,,,,,,1469.1224639000002,1474.1219127000004,1474.1219201000004,1474.1384531000003,1482.1218687,1482.1218687,1485.0885807000004,1485.1218994,1485.1218994,1485.1053857999996,3.27,5.53,327,553,8,1.2,0.75,pic-absent,0,m,1.2202099000005546,None,,,,,sub-061,44.7,41.1,45.4,COM3,2025-07-31_08h56.23.618,2024_RDpaindiscrimination_maintask,2023.2.3,59.98908198703773,2025-07-31 08h56.37.776004 -0400,
1,0,1,0,,,,,1,0,1,0,,,,,3,0,3,0,1485.1218994,,,,,,,,,,,,,3,inactive,,,,,,,,,,,,,,,,,,1485.1058300000004,1490.1054296000002,1490.1054363000003,1490.1219352999997,1498.1053764999997,1498.1053764999997,1501.0720798000002,1501.1054160000003,1501.1054160000003,1501.0888941000003,4.64,4.16,463,416,8,1.2,0.75,pic-absent,0,m,1.2045964999997523,None,,,,,sub-061,44.7,41.1,45.4,COM3,2025-07-31_08h56.23.618,2024_RDpaindiscrimination_maintask,2023.2.3,59.98908198703773,2025-07-31 08h56.37.776004 -0400,
1,0,1,0,,,,,2,0,2,0,0,0,0,0,,,,,1503.0055117000002,,,,,,1501.0894049999997,1502.9889898000001,,,,,,0,inactive,44.7,1519.989087,1523.2247207,39.00000000000007,3.216,,,,,1502.9892578999998,1507.9889629999998,1507.9889698999996,1508.0054984999997,,1519.9890778,,,,,,,,,,,,,,,,,,,,,,,,,,,,,sub-061,44.7,41.1,45.4,COM3,2025-07-31_08h56.23.618,2024_RDpaindiscrimination_maintask,2023.2.3,59.98908198703773,2025-07-31 08h56.37.776004 -0400,
1,0,1,0,,,,,2,0,2,0,1,0,1,0,,,,,1523.2390760999997,,,,,,,,,,,,,1,active,44.7,1540.2228525,1545.6407135,32.000000000000036,5.398,,,,,1523.2254792000003,1528.2225857000003,1528.2225932000001,1528.2394574,1540.2558589,1540.2228451,,,,,,,,,,,,,,,,,,,,,,,,,,,,,sub-061,44.7,41.1,45.4,COM3,2025-07-31_08h56.23.618,2024_RDpaindiscrimination_maintask,2023.2.3,59.98908198703773,2025-07-31 08h56.37.776004 -0400,
1,0,1,0,,,,,2,0,2,0,,,,,0,0,0,0,1546.9226015000004,,,,,,,,,,,,,2,inactive,,,,,,,,,,,,,,,,1545.6412327999997,1546.9061874999998,1546.906484,1551.9061281000004,1551.9061356000002,1551.9227684999996,1559.9060701999997,1559.9060701999997,1562.8728205999996,1562.9061236999996,1562.9061236999996,1562.889714,4.21,4.59,421,459,8,1.2,0.75,pic-present,0,m,1.3079805999996097,None,,,,,sub-061,44.7,41.1,45.4,COM3,2025-07-31_08h56.23.618,2024_RDpaindiscrimination_maintask,2023.2.3,59.98908198703773,2025-07-31 08h56.37.776004 -0400,
1,0,1,0,,,,,2,0,2,0,,,,,1,0,1,0,1562.9061236999996,,,,,,,,,,,,,3,active,,,,,,,,,,,,,,,,,,1562.8902002000004,1567.8896766999997,1567.8896834999996,1567.9062178000004,1575.8897072,1575.8897072,1578.8563463,1578.8896762000004,1578.8896762000004,1578.8732093999997,4.47,4.33,447,433,8,1.2,0.75,pic-present,1,n,1.2567432000005283,None,,,,,sub-061,44.7,41.1,45.4,COM3,2025-07-31_08h56.23.618,2024_RDpaindiscrimination_maintask,2023.2.3,59.98908198703773,2025-07-31 08h56.37.776004 -0400,
1,0,1,0,,,,,2,0,2,0,,,,,2,0,2,0,1578.8896762000004,,,,,,,,,,,,,0,inactive,,,,,,,,,,,,,,,,,,1578.8737105,1583.8731134999998,1583.8731211000004,1583.8896998,1591.8731475000004,1591.8731475000004,1594.8398226,1594.8731957999998,1594.8731957999998,1594.8566919000004,4.54,4.26,454,426,8,1.2,0.75,pic-absent,0,m,2.048607300000185,None,,,,,sub-061,44.7,41.1,45.4,COM3,2025-07-31_08h56.23.618,2024_RDpaindiscrimination_maintask,2023.2.3,59.98908198703773,2025-07-31 08h56.37.776004 -0400,
1,0,1,0,,,,,2,0,2,0,,,,,3,0,3,0,1594.8731957999998,,,,,,,,,,,,,1,inactive,,,,,,,,,,,,,,,,,,1594.8571388999999,1599.8566223999997,1599.8566291999996,1599.8732090000003,1607.8566042000002,1607.8566042000002,1610.8233314999998,1610.8566431,1610.8566431,1610.8401089,3.78,5.02,378,501,8,1.2,0.75,pic-present,0,m,1.1732695000000604,None,,,,,sub-061,44.7,41.1,45.4,COM3,2025-07-31_08h56.23.618,2024_RDpaindiscrimination_maintask,2023.2.3,59.98908198703773,2025-07-31 08h56.37.776004 -0400,
1,0,1,0,,,,,3,0,3,0,0,0,0,0,,,,,1612.3567137999999,,,,,,1610.8406014000002,1612.3402520999998,,,,,,2,active,44.7,1629.3405248,1631.9427846999997,37.50000000000004,2.582,,,,,1612.3405346,1617.3402521999997,1617.3402585000003,1617.3567851999996,1629.3735888,1629.3405168,,,,,,,,,,,,,,,,,,,,,,,,,,,,,sub-061,44.7,41.1,45.4,COM3,2025-07-31_08h56.23.618,2024_RDpaindiscrimination_maintask,2023.2.3,59.98908198703773,2025-07-31 08h56.37.776004 -0400,
1,0,1,0,,,,,3,0,3,0,1,0,1,0,,,,,1631.9569617999996,,,,,,,,,,,,,3,inactive,44.7,1648.9408213999995,1653.1089890000003,26.000000000000085,4.148,,,,,1631.9435542,1636.9404507,1636.9404568,1636.9569449,1648.9738472999998,1648.9408135000003,,,,,,,,,,,,,,,,,,,,,,,,,,,,,sub-061,44.7,41.1,45.4,COM3,2025-07-31_08h56.23.618,2024_RDpaindiscrimination_maintask,2023.2.3,59.98908198703773,2025-07-31 08h56.37.776004 -0400,
1,0,1,0,,,,,3,0,3,0,,,,,0,0,0,0,1654.5738536999997,,,,,,,,,,,,,0,active,,,,,,,,,,,,,,,,1653.1094965000002,1654.5574174000003,1654.5577248999998,1659.5574712999996,1659.5574798999996,1659.5739893999998,1667.5573869,1667.5573869,1670.5240823000004,1670.5574347000002,1670.5574347000002,1670.5408380999997,4.22,4.58,422,458,8,1.2,0.75,pic-present,1,n,1.4728313000005073,None,,,,,sub-061,44.7,41.1,45.4,COM3,2025-07-31_08h56.23.618,2024_RDpaindiscrimination_maintask,2023.2.3,59.98908198703773,2025-07-31 08h56.37.776004 -0400,
1,0,1,0,,,,,3,0,3,0,,,,,1,0,1,0,1670.5574347000002,,,,,,,,,,,,,1,inactive,,,,,,,,,,,,,,,,,,1670.5413749,1675.5408197999996,1675.5408264999996,1675.5574519000002,1683.5409068999998,1683.5409068999998,1686.5075723,1686.5409311000003,1686.5409311000003,1686.5244104000003,4.16,4.64,416,463,8,1.2,0.75,pic-absent,0,m,1.4969496000003346,None,,,,,sub-061,44.7,41.1,45.4,COM3,2025-07-31_08h56.23.618,2024_RDpaindiscrimination_maintask,2023.2.3,59.98908198703773,2025-07-31 08h56.37.776004 -0400,
1,0,1,0,,,,,3,0,3,0,,,,,2,0,2,0,1686.5409311000003,,,,,,,,,,,,,2,active,,,,,,,,,,,,,,,,,,1686.5248467000001,1691.5244329999996,1691.5244398000004,1691.5409947999997,1699.5244682000002,1699.5244682000002,1702.4910370999996,1702.5244261999997,1702.5244261999997,1702.5079309000002,3.65,5.15,365,515,8,1.2,0.75,pic-present,0,m,1.7348748999993404,None,,,,,sub-061,44.7,41.1,45.4,COM3,2025-07-31_08h56.23.618,2024_RDpaindiscrimination_maintask,2023.2.3,59.98908198703773,2025-07-31 08h56.37.776004 -0400,
1,0,1,0,,,,,3,0,3,0,,,,,3,0,3,0,1702.5244261999997,,,,,,,,,,,,,3,active,,,,,,,,,,,,,,,,,,1702.5083931,1707.5079145999998,1707.5079214999996,1707.5244624999996,1715.5078672999998,1715.5078672999998,1718.4745630999996,1718.5078504000003,1718.5078504000003,1718.4913987999998,4.73,4.07,473,407,8,1.2,0.75,pic-absent,0,m,1.5340292000000773,None,,,,,sub-061,44.7,41.1,45.4,COM3,2025-07-31_08h56.23.618,2024_RDpaindiscrimination_maintask,2023.2.3,59.98908198703773,2025-07-31 08h56.37.776004 -0400,
,,,,,,,,,,,,,,,,,,,,,,,,,,,,,,,,,,,,,,,,,,,,,,,,,,,,,,,,,,,,,,,,,,,,,,,,,,1718.4918260000004,1720.6915275000001,1720.6915503999999,1730.6915215,,,,,,,,,,,
