trials.thisRepN,trials.thisTrialN,trials.thisN,trials.thisIndex,loop_test.thisRepN,loop_test.thisTrialN,loop_test.thisN,loop_test.thisIndex,loop_eval_discri.thisRepN,loop_eval_discri.thisTrialN,loop_eval_discri.thisN,loop_eval_discri.thisIndex,loop_eval.thisRepN,loop_eval.thisTrialN,loop_eval.thisN,loop_eval.thisIndex,loop_discri.thisRepN,loop_discri.thisTrialN,loop_discri.thisN,loop_discri.thisIndex,thisRow.t,notes,Set_up.started,Set_up.stopped,electrode_check.started,electrode_check.stopped,instructions_eval.started,instructions_eval.stopped,pause_5_test.started,pause_5_test.stopped,Phase_Test.started,thermode_locali.started,Phase_Test.stopped,loca_thermode,condition,temp_trial_sent,eval_douleur.started,eval_douleur.stopped,ratingScale.response,ratingScale.rt,thermode_locali.stopped,Fin_test.started,text.started,Fin_test.stopped,pause_5_EVA.started,pause_5_EVA.stopped,tâche_EVA.started,thermode_locali_EVA.started,tâche_EVA.stopped,thermode_locali_EVA.stopped,instructions_discrim.started,instructions_discrim.stopped,pause_5_pic.started,pause_5_pic.stopped,tâche_PIC.started,thermode_locali_pic.started,percu_or.started,responser.started,thermode_locali_pic.stopped,percu_or.stopped,responser.stopped,tâche_PIC.stopped,dur_plateau1,dur_plateau2,dur_plateau1_sent,dur_plateau2_sent,start_plateau_2_resp,dur_pic,dur_rise,pic_presence,pic_response,discrimin_resp.keys,discrimin_resp.rt,discrimin_resp.duration,break_entre_bloc.started,break_entre_bloc.stopped,merci.started,merci.stopped,participant,temp_flat,temp_active,temp_pic_set,com_thermode,date,expName,psychopyVersion,frameRate,expStart,
0,0,0,0,0,0,0,0,,,,,,,,,,,,,281.7823002000805,,0.012151199975050986,261.0489637000719,261.04935400001705,266.14895459997933,266.1489624000387,281.7492210000055,281.7495152000338,286.76571439998224,286.76572030002717,286.7823569000466,298.765872900025,0,active,44.9,298.76608460000716,303.4181049000472,5.000000000000067,4.627,,,,,,,,,,,,,,,,,,,,,,,,,,,,,,,,,,,,,,,sub-054,47.1,44.9,47.48,COM3,2025-06-03_08h33.26.027,2024_RDpaindiscrimination_maintask,2023.2.3,60.002364097176404,2025-06-03 08h33.52.293540 -0400,
0,0,0,0,1,0,1,0,,,,,,,,,,,,,303.43265109998174,,,,,,,,303.4189381999895,308.4159773000283,308.415983300074,308.43258560006507,320.41633659997024,1,inactive,47.1,320.4164748999756,322.45091770007275,54.00000000000009,2.014,320.4494009000482,,,,,,,,,,,,,,,,,,,,,,,,,,,,,,,,,,,,,,sub-054,47.1,44.9,47.48,COM3,2025-06-03_08h33.26.027,2024_RDpaindiscrimination_maintask,2023.2.3,60.002364097176404,2025-06-03 08h33.52.293540 -0400,
0,0,0,0,2,0,2,0,,,,,,,,,,,,,322.46607800002676,,,,,,,,322.45170580002014,327.4496547000017,327.4496609000489,327.466225399985,339.44996550004,2,inactive,47.1,339.4501057000598,341.2510766000487,63.00000000000003,1.781,339.48300210002344,,,,,,,,,,,,,,,,,,,,,,,,,,,,,,,,,,,,,,sub-054,47.1,44.9,47.48,COM3,2025-06-03_08h33.26.027,2024_RDpaindiscrimination_maintask,2023.2.3,60.002364097176404,2025-06-03 08h33.52.293540 -0400,
0,0,0,0,3,0,3,0,,,,,,,,,,,,,341.2662869000342,,,,,,,,341.25183029996697,346.2499017000664,346.2499080999987,346.26643030007835,358.2502579999855,3,active,44.9,358.2504158000229,360.5512561000651,28.000000000000114,2.281,358.28324570006225,,,,,,,,,,,,,,,,,,,,,,,,,,,,,,,,,,,,,,sub-054,47.1,44.9,47.48,COM3,2025-06-03_08h33.26.027,2024_RDpaindiscrimination_maintask,2023.2.3,60.002364097176404,2025-06-03 08h33.52.293540 -0400,
0,0,0,0,4,0,4,0,,,,,,,,,,,,,360.56661340000574,,,,,,,,360.55204890004825,365.5500281000277,365.5500343000749,365.566582200001,377.5503494000295,0,inactive,47.1,377.5504940999672,379.7521948000649,60.49999999999989,2.182,377.5833659999771,,,,,,,,,,,,,,,,,,,,,,,,,,,,,,,,,,,,,,sub-054,47.1,44.9,47.48,COM3,2025-06-03_08h33.26.027,2024_RDpaindiscrimination_maintask,2023.2.3,60.002364097176404,2025-06-03 08h33.52.293540 -0400,
0,0,0,0,5,0,5,0,,,,,,,,,,,,,379.76686960004736,,,,,,,,379.75292740005534,384.7502544000745,384.7502606000053,384.76678920001723,396.75064410001505,1,active,44.9,396.75078540004324,398.9354602000676,21.500000000000004,2.164,396.78359910007566,,,,,,,,,,,,,,,,,,,,,,,,,,,,,,,,,,,,,,sub-054,47.1,44.9,47.48,COM3,2025-06-03_08h33.26.027,2024_RDpaindiscrimination_maintask,2023.2.3,60.002364097176404,2025-06-03 08h33.52.293540 -0400,
0,0,0,0,6,0,6,0,,,,,,,,,,,,,398.95043409999926,,,,,,,,398.93623890005983,403.9338286999846,403.9338351000333,403.9503562999889,415.9341730000451,2,active,44.9,415.9343120000558,417.3518980999943,32.000000000000064,1.398,415.96724570007063,,,,,,,,,,,,,,,,,,,,,,,,,,,,,,,,,,,,,,sub-054,47.1,44.9,47.48,COM3,2025-06-03_08h33.26.027,2024_RDpaindiscrimination_maintask,2023.2.3,60.002364097176404,2025-06-03 08h33.52.293540 -0400,
0,0,0,0,7,0,7,0,,,,,,,,,,,,,417.3672171999933,,,,,,,,417.35270260006655,422.3508489000378,422.3508568999823,422.3672548000468,434.35105529997963,3,inactive,47.1,434.3511937999865,435.73623000003863,69.50000000000004,1.365,434.384033099981,,,,,,,,,,,,,,,,,,,,,,,,,,,,,,,,,,,,,,sub-054,47.1,44.9,47.48,COM3,2025-06-03_08h33.26.027,2024_RDpaindiscrimination_maintask,2023.2.3,60.002364097176404,2025-06-03 08h33.52.293540 -0400,
0,0,0,0,8,0,8,0,,,,,,,,,,,,,435.7508087999886,,,,,,,,435.73699030000716,440.73428920004517,440.73429469997063,440.7508163000457,452.7346179999877,0,active,44.9,452.73475549998693,453.98659059999045,26.00000000000005,1.232,452.7676899000071,,,,,,,,,,,,,,,,,,,,,,,,,,,,,,,,,,,,,,sub-054,47.1,44.9,47.48,COM3,2025-06-03_08h33.26.027,2024_RDpaindiscrimination_maintask,2023.2.3,60.002364097176404,2025-06-03 08h33.52.293540 -0400,
0,0,0,0,9,0,9,0,,,,,,,,,,,,,454.001043700031,,,,,,,,453.9873551999917,458.9845250999788,458.98453170002904,459.0011472000042,470.98485480004456,1,inactive,47.1,470.98499530006666,473.28694450005423,70.5,2.282,471.01785820000805,,,,,,,,,,,,,,,,,,,,,,,,,,,,,,,,,,,,,,sub-054,47.1,44.9,47.48,COM3,2025-06-03_08h33.26.027,2024_RDpaindiscrimination_maintask,2023.2.3,60.002364097176404,2025-06-03 08h33.52.293540 -0400,
0,0,0,0,10,0,10,0,,,,,,,,,,,,,473.3012566000689,,,,,,,,473.28776850004215,478.28475490002893,478.2847609000746,478.30130010005087,490.2851308999816,2,active,44.9,490.2852724000113,491.8703316000756,17.500000000000007,1.564,490.3181167000439,,,,,,,,,,,,,,,,,,,,,,,,,,,,,,,,,,,,,,sub-054,47.1,44.9,47.48,COM3,2025-06-03_08h33.26.027,2024_RDpaindiscrimination_maintask,2023.2.3,60.002364097176404,2025-06-03 08h33.52.293540 -0400,
0,0,0,0,11,0,11,0,,,,,,,,,,,,,491.8847811999731,,,,,,,,491.8706775000319,496.86834180005826,496.86834769998677,496.88484650000464,508.86875939997844,3,inactive,47.1,508.86889809998684,511.65415910002775,73.49999999999982,2.765,508.9016961000161,,,,,,,,,,,,,,,,,,,,,,,,,,,,,,,,,,,,,,sub-054,47.1,44.9,47.48,COM3,2025-06-03_08h33.26.027,2024_RDpaindiscrimination_maintask,2023.2.3,60.002364097176404,2025-06-03 08h33.52.293540 -0400,
0,0,0,0,12,0,12,0,,,,,,,,,,,,,511.6684000999667,,,,,,,,511.6549875000492,516.6519454000518,516.6519515999826,516.6684762999648,528.6522667000536,0,inactive,47.1,528.65240120003,530.3214376000687,85.99999999999994,1.649,528.6852689000079,,,,,,,,,,,,,,,,,,,,,,,,,,,,,,,,,,,,,,sub-054,47.1,44.9,47.48,COM3,2025-06-03_08h33.26.027,2024_RDpaindiscrimination_maintask,2023.2.3,60.002364097176404,2025-06-03 08h33.52.293540 -0400,
0,0,0,0,13,0,13,0,,,,,,,,,,,,,530.3352667000145,,,,,,,,530.3222668999806,535.3188378000632,535.3188436999917,535.3353689999785,547.3192195000593,1,active,44.9,547.3193597000791,550.3556373000611,19.000000000000078,3.017,547.3521820000606,,,,,,,,,,,,,,,,,,,,,,,,,,,,,,,,,,,,,,sub-054,47.1,44.9,47.48,COM3,2025-06-03_08h33.26.027,2024_RDpaindiscrimination_maintask,2023.2.3,60.002364097176404,2025-06-03 08h33.52.293540 -0400,
0,0,0,0,14,0,14,0,,,,,,,,,,,,,550.3688509999774,,,,,,,,550.3564387999941,555.352379500051,555.3523860999849,555.3689123999793,567.3527596000349,2,inactive,47.1,567.3528989000479,569.0039091999643,71.5,1.63,567.3857560000615,,,,,,,,,,,,,,,,,,,,,,,,,,,,,,,,,,,,,,sub-054,47.1,44.9,47.48,COM3,2025-06-03_08h33.26.027,2024_RDpaindiscrimination_maintask,2023.2.3,60.002364097176404,2025-06-03 08h33.52.293540 -0400,
0,0,0,0,15,0,15,0,,,,,,,,,,,,,569.0191186000593,,,,,,,,569.0047182000708,574.0026273999829,574.002633200027,574.0191889000125,586.0029690000229,3,active,44.9,586.0031076000305,587.5219308000524,20.000000000000036,1.498,586.036042700056,,,,,,,,,,,,,,,,,,,,,,,,,,,,,,,,,,,,,,sub-054,47.1,44.9,47.48,COM3,2025-06-03_08h33.26.027,2024_RDpaindiscrimination_maintask,2023.2.3,60.002364097176404,2025-06-03 08h33.52.293540 -0400,
0,0,0,0,,,,,0,0,0,0,0,0,0,0,,,,,613.4029828000348,,,,,,609.9535226000007,613.38653290004,,,,,,0,inactive,47.1,630.3865987000754,632.3050607000478,85.49999999999994,1.898,,587.5224633000325,587.5360760000767,609.9532111000735,613.3868090000469,618.3865063000703,618.386513400008,618.403047000058,630.3865902000107,,,,,,,,,,,,,,,,,,,,,,,,,,,,,,sub-054,47.1,44.9,47.48,COM3,2025-06-03_08h33.26.027,2024_RDpaindiscrimination_maintask,2023.2.3,60.002364097176404,2025-06-03 08h33.52.293540 -0400,
0,0,0,0,,,,,0,0,0,0,1,0,1,0,,,,,632.319923400064,,,,,,,,,,,,,1,active,47.1,649.303743800032,651.4229182000272,20.000000000000007,2.099,,,,,632.3058264000574,637.303449900006,637.3034559000516,637.3199824000476,649.3037368999794,649.3367676000344,,,,,,,,,,,,,,,,,,,,,,,,,,,,,sub-054,47.1,44.9,47.48,COM3,2025-06-03_08h33.26.027,2024_RDpaindiscrimination_maintask,2023.2.3,60.002364097176404,2025-06-03 08h33.52.293540 -0400,
0,0,0,0,,,,,0,0,0,0,,,,,0,0,0,0,654.3701620000647,,,,,,,,,,,,,2,active,,,,,,,,,,,,,,,,651.4234320999822,654.3537084000418,654.3540217999835,659.3536920000333,659.3536985999672,659.3702242000727,667.3536576000042,667.3536576000042,670.3203791000415,670.353704100009,670.353704100009,670.3371795000276,4.18,4.62,418,462,8,1.2,0.75,pic-present,0,n,0.9620037999702618,None,,,,,sub-054,47.1,44.9,47.48,COM3,2025-06-03_08h33.26.027,2024_RDpaindiscrimination_maintask,2023.2.3,60.002364097176404,2025-06-03 08h33.52.293540 -0400,
0,0,0,0,,,,,0,0,0,0,,,,,1,0,1,0,670.353704100009,,,,,,,,,,,,,3,active,,,,,,,,,,,,,,,,,,670.337878899998,675.3372362999944,675.3372422000393,675.3537626999896,683.3372404000256,683.3372404000256,686.3038948000176,686.3372601000592,686.3372601000592,686.3207085999893,3.72,5.08,372,508,8,1.2,0.75,pic-absent,1,m,0.5351706999354064,None,,,,,sub-054,47.1,44.9,47.48,COM3,2025-06-03_08h33.26.027,2024_RDpaindiscrimination_maintask,2023.2.3,60.002364097176404,2025-06-03 08h33.52.293540 -0400,
0,0,0,0,,,,,0,0,0,0,,,,,2,0,2,0,686.3372601000592,,,,,,,,,,,,,0,inactive,,,,,,,,,,,,,,,,,,686.3211745000444,691.3207544999896,691.3207607000368,691.3372901000548,699.3207237999886,699.3207237999886,702.2874789000489,702.3207689999836,702.3207689999836,702.3042506000493,3.82,4.98,382,498,8,1.2,0.75,pic-present,1,m,0.8873735000379384,None,,,,,sub-054,47.1,44.9,47.48,COM3,2025-06-03_08h33.26.027,2024_RDpaindiscrimination_maintask,2023.2.3,60.002364097176404,2025-06-03 08h33.52.293540 -0400,
0,0,0,0,,,,,0,0,0,0,,,,,3,0,3,0,702.3207689999836,,,,,,,,,,,,,1,active,,,,,,,,,,,,,,,,,,702.3047175999964,707.3042645000387,707.3042720999802,707.3208317999961,715.3042616000166,715.3042616000166,718.2709769000066,718.3043005999643,718.3043005999643,718.2878041000804,4.49,4.31,449,430,8,1.2,0.75,pic-absent,1,m,0.8276660999981686,None,,,,,sub-054,47.1,44.9,47.48,COM3,2025-06-03_08h33.26.027,2024_RDpaindiscrimination_maintask,2023.2.3,60.002364097176404,2025-06-03 08h33.52.293540 -0400,
0,0,0,0,,,,,1,0,1,0,0,0,0,0,,,,,719.2876474000514,,,,,,718.2882736000465,719.2712640999816,,,,,,2,active,47.1,736.2713601000141,737.8902399999788,70.00000000000003,1.599,,,,,719.27157360001,724.2713153000223,724.2713223000756,724.2878264000174,736.2713522000704,,,,,,,,,,,,,,,,,,,,,,,,,,,,,,sub-054,47.1,44.9,47.48,COM3,2025-06-03_08h33.26.027,2024_RDpaindiscrimination_maintask,2023.2.3,60.002364097176404,2025-06-03 08h33.52.293540 -0400,
0,0,0,0,,,,,1,0,1,0,1,0,1,0,,,,,737.9045882000355,,,,,,,,,,,,,3,inactive,47.1,754.8885528000537,756.5559988999739,90.0,1.647,,,,,737.8909929000074,742.8882075999863,742.8882144000381,742.9047429000493,754.8885456999997,754.9215558000142,,,,,,,,,,,,,,,,,,,,,,,,,,,,,sub-054,47.1,44.9,47.48,COM3,2025-06-03_08h33.26.027,2024_RDpaindiscrimination_maintask,2023.2.3,60.002364097176404,2025-06-03 08h33.52.293540 -0400,
0,0,0,0,,,,,1,0,1,0,,,,,0,0,0,0,758.5548469000496,,,,,,,,,,,,,0,inactive,,,,,,,,,,,,,,,,756.556507500005,758.538419199991,758.5387092999881,763.5383698000805,763.5383760000113,763.5549116000766,771.538415200077,771.538415200077,774.5051348999841,774.5384606000734,774.5384606000734,774.5219640000723,4.21,4.59,421,459,8,1.2,0.75,pic-absent,1,m,0.5545755000784993,None,,,,,sub-054,47.1,44.9,47.48,COM3,2025-06-03_08h33.26.027,2024_RDpaindiscrimination_maintask,2023.2.3,60.002364097176404,2025-06-03 08h33.52.293540 -0400,
0,0,0,0,,,,,1,0,1,0,,,,,1,0,1,0,774.5384606000734,,,,,,,,,,,,,1,inactive,,,,,,,,,,,,,,,,,,774.522501999978,779.5220129999798,779.5220201000338,779.5385329000419,787.521961200051,787.521961200051,790.4886621000478,790.5219933000626,790.5219933000626,790.5054808000568,4.0,4.8,400,480,8,1.2,0.75,pic-present,0,n,0.7298457000870258,None,,,,,sub-054,47.1,44.9,47.48,COM3,2025-06-03_08h33.26.027,2024_RDpaindiscrimination_maintask,2023.2.3,60.002364097176404,2025-06-03 08h33.52.293540 -0400,
0,0,0,0,,,,,1,0,1,0,,,,,2,0,2,0,790.5219933000626,,,,,,,,,,,,,2,active,,,,,,,,,,,,,,,,,,790.5059877000749,795.5055414000526,795.5055482999887,795.5220649000257,803.5055028999923,803.5055028999923,806.4722021999769,806.5055416000541,806.5055416000541,806.489021699992,3.35,5.45,335,545,8,1.2,0.75,pic-present,0,n,0.4874207000248134,None,,,,,sub-054,47.1,44.9,47.48,COM3,2025-06-03_08h33.26.027,2024_RDpaindiscrimination_maintask,2023.2.3,60.002364097176404,2025-06-03 08h33.52.293540 -0400,
0,0,0,0,,,,,1,0,1,0,,,,,3,0,3,0,806.5055416000541,,,,,,,,,,,,,3,inactive,,,,,,,,,,,,,,,,,,806.4894711000379,811.4890640999656,811.4890714000212,811.5056067999685,819.4890269000316,819.4890269000316,822.4557346000802,822.4890855000122,822.4890855000122,822.4725581000093,3.28,5.52,328,552,8,1.2,0.75,pic-absent,1,m,0.3602641999023035,None,,,,,sub-054,47.1,44.9,47.48,COM3,2025-06-03_08h33.26.027,2024_RDpaindiscrimination_maintask,2023.2.3,60.002364097176404,2025-06-03 08h33.52.293540 -0400,
0,0,0,0,,,,,2,0,2,0,0,0,0,0,,,,,824.0890875000041,,,,,,822.4730313000036,824.073080400005,,,,,,0,active,47.1,841.0729365000734,842.8908051999751,61.999999999999886,1.797,,,,,824.0733741000295,829.0726427000482,829.0726495999843,829.0891526000341,841.0729291000171,841.1059716000455,,,,,,,,,,,,,,,,,,,,,,,,,,,,,sub-054,47.1,44.9,47.48,COM3,2025-06-03_08h33.26.027,2024_RDpaindiscrimination_maintask,2023.2.3,60.002364097176404,2025-06-03 08h33.52.293540 -0400,
0,0,0,0,,,,,2,0,2,0,1,0,1,0,,,,,842.9059866999742,,,,,,,,,,,,,1,inactive,47.1,859.8898087000707,861.4408641000045,86.99999999999996,1.531,,,,,842.8910678999964,847.8895387999946,847.8895450000418,847.9060713000363,859.889800600009,859.9228742000414,,,,,,,,,,,,,,,,,,,,,,,,,,,,,sub-054,47.1,44.9,47.48,COM3,2025-06-03_08h33.26.027,2024_RDpaindiscrimination_maintask,2023.2.3,60.002364097176404,2025-06-03 08h33.52.293540 -0400,
0,0,0,0,,,,,2,0,2,0,,,,,0,0,0,0,863.1728707000148,,,,,,,,,,,,,2,active,,,,,,,,,,,,,,,,861.4414029000327,863.1564676000271,863.1567611000501,868.1564592000796,868.1564651000081,868.1729738999857,876.1564115000656,876.1564115000656,879.1231101000449,879.156416199985,879.156416199985,879.1399626000784,3.43,5.37,343,537,8,1.2,0.75,pic-absent,0,n,0.5962265999987721,None,,,,,sub-054,47.1,44.9,47.48,COM3,2025-06-03_08h33.26.027,2024_RDpaindiscrimination_maintask,2023.2.3,60.002364097176404,2025-06-03 08h33.52.293540 -0400,
0,0,0,0,,,,,2,0,2,0,,,,,1,0,1,0,879.156416199985,,,,,,,,,,,,,3,active,,,,,,,,,,,,,,,,,,879.1405191000085,884.1398579999804,884.1398647000315,884.1563987999689,892.1399412000319,892.1399412000319,895.1066496999701,895.1399815999903,895.1399815999903,895.1234881000128,4.48,4.32,448,432,8,1.2,0.75,pic-present,0,n,0.725136199966073,None,,,,,sub-054,47.1,44.9,47.48,COM3,2025-06-03_08h33.26.027,2024_RDpaindiscrimination_maintask,2023.2.3,60.002364097176404,2025-06-03 08h33.52.293540 -0400,
0,0,0,0,,,,,2,0,2,0,,,,,2,0,2,0,895.1399815999903,,,,,,,,,,,,,0,inactive,,,,,,,,,,,,,,,,,,895.1239778000163,900.1233904999681,900.1233969000168,900.1399639999727,908.1234918000409,908.1234918000409,911.090192600037,911.1235224000411,911.1235224000411,911.1070185999852,3.39,5.41,339,541,8,1.2,0.75,pic-absent,1,m,0.4009307000087574,None,,,,,sub-054,47.1,44.9,47.48,COM3,2025-06-03_08h33.26.027,2024_RDpaindiscrimination_maintask,2023.2.3,60.002364097176404,2025-06-03 08h33.52.293540 -0400,
0,0,0,0,,,,,2,0,2,0,,,,,3,0,3,0,911.1235224000411,,,,,,,,,,,,,1,active,,,,,,,,,,,,,,,,,,911.1074609999778,916.1069131999975,916.106919700047,916.1234693999868,924.1068858000217,924.1068858000217,927.0735969999805,927.106930000009,927.106930000009,927.0904215000337,3.79,5.01,379,501,8,1.2,0.75,pic-present,1,m,0.4370844999793917,None,,,,,sub-054,47.1,44.9,47.48,COM3,2025-06-03_08h33.26.027,2024_RDpaindiscrimination_maintask,2023.2.3,60.002364097176404,2025-06-03 08h33.52.293540 -0400,
0,0,0,0,,,,,3,0,3,0,0,0,0,0,,,,,928.5236926999642,,,,,,927.0908865999663,928.507243399974,,,,,,2,inactive,47.1,945.5073273000307,948.3098892000271,76.4999999999998,2.782,,,,,928.5075428000418,933.5071343000745,933.5071406000061,933.5236806999892,945.5073203999782,,,,,,,,,,,,,,,,,,,,,,,,,,,,,,sub-054,47.1,44.9,47.48,COM3,2025-06-03_08h33.26.027,2024_RDpaindiscrimination_maintask,2023.2.3,60.002364097176404,2025-06-03 08h33.52.293540 -0400,
0,0,0,0,,,,,3,0,3,0,1,0,1,0,,,,,948.3239411000395,,,,,,,,,,,,,3,active,47.1,965.307836299995,966.6938372000586,59.50000000000007,1.366,,,,,948.3106592000695,953.3074279000284,953.3074346000794,953.3239594000624,965.3078291000566,965.3408597999951,,,,,,,,,,,,,,,,,,,,,,,,,,,,,sub-054,47.1,44.9,47.48,COM3,2025-06-03_08h33.26.027,2024_RDpaindiscrimination_maintask,2023.2.3,60.002364097176404,2025-06-03 08h33.52.293540 -0400,
0,0,0,0,,,,,3,0,3,0,,,,,0,0,0,0,968.6242461000802,,,,,,,,,,,,,0,inactive,,,,,,,,,,,,,,,,966.69462319999,968.6077620000578,968.6080909000011,973.6076961000217,973.607702700072,973.6242203000002,981.6077542999992,981.6077542999992,984.5744542999892,984.60778760002,984.60778760002,984.5912828000728,3.99,4.81,399,480,8,1.2,0.75,pic-present,1,m,0.6525677000172436,None,,,,,sub-054,47.1,44.9,47.48,COM3,2025-06-03_08h33.26.027,2024_RDpaindiscrimination_maintask,2023.2.3,60.002364097176404,2025-06-03 08h33.52.293540 -0400,
0,0,0,0,,,,,3,0,3,0,,,,,1,0,1,0,984.60778760002,,,,,,,,,,,,,1,inactive,,,,,,,,,,,,,,,,,,984.5918165000621,989.591221800074,989.5912286000093,989.6077560000122,997.591273500002,997.591273500002,1000.5579833000666,1000.591319500003,1000.591319500003,1000.5748015000718,3.46,5.34,346,534,8,1.2,0.75,pic-absent,0,n,0.40942099993117154,None,,,,,sub-054,47.1,44.9,47.48,COM3,2025-06-03_08h33.26.027,2024_RDpaindiscrimination_maintask,2023.2.3,60.002364097176404,2025-06-03 08h33.52.293540 -0400,
0,0,0,0,,,,,3,0,3,0,,,,,2,0,2,0,1000.591319500003,,,,,,,,,,,,,2,active,,,,,,,,,,,,,,,,,,1000.5753117999993,1005.5747532000532,1005.5747595999856,1005.5913091000402,1013.5748079000041,1013.5748079000041,1016.5413848999888,1016.5746893000323,1016.5746893000323,1016.5581636000425,4.27,4.53,426,453,8,1.2,0.75,pic-absent,1,m,0.45747139991726726,None,,,,,sub-054,47.1,44.9,47.48,COM3,2025-06-03_08h33.26.027,2024_RDpaindiscrimination_maintask,2023.2.3,60.002364097176404,2025-06-03 08h33.52.293540 -0400,
0,0,0,0,,,,,3,0,3,0,,,,,3,0,3,0,1016.5746893000323,,,,,,,,,,,,,3,inactive,,,,,,,,,,,,,,,,,,1016.5586254000664,1021.5582473999821,1021.5582539000316,1021.5747463000007,1029.558211900061,1029.558211900061,1032.5249269000487,1032.5582338999957,1032.5582338999957,1032.541791500058,3.82,4.98,382,498,8,1.2,0.75,pic-present,1,m,0.47832400002516806,None,,,,,sub-054,47.1,44.9,47.48,COM3,2025-06-03_08h33.26.027,2024_RDpaindiscrimination_maintask,2023.2.3,60.002364097176404,2025-06-03 08h33.52.293540 -0400,
1,0,1,0,0,0,0,0,,,,,,,,,,,,,1073.1087671000278,,,,1059.0257046000334,1061.7921926999697,1061.792200100026,1073.0923950000433,1073.0927580000134,1078.0923021000344,1078.0923081000801,1078.1087983000325,1090.0927209999645,0,active,44.9,1090.0929345000768,1092.9107742999913,8.500000000000167,2.793,1090.125626699999,,,,,,,,,,,,,,,,,,,,,,,,,,,,,,,,,,1032.5422587000066,1059.0255622999975,,,sub-054,47.1,44.9,47.48,COM3,2025-06-03_08h33.26.027,2024_RDpaindiscrimination_maintask,2023.2.3,60.002364097176404,2025-06-03 08h33.52.293540 -0400,
1,0,1,0,1,0,1,0,,,,,,,,,,,,,1092.9257694999687,,,,,,,,1092.9116304999916,1097.9092585999751,1097.9092644000193,1097.9257851999719,1109.9096764000133,1,inactive,47.1,1109.90981620003,1111.3287049999926,63.999999999999915,1.399,1109.9425635000225,,,,,,,,,,,,,,,,,,,,,,,,,,,,,,,,,,,,,,sub-054,47.1,44.9,47.48,COM3,2025-06-03_08h33.26.027,2024_RDpaindiscrimination_maintask,2023.2.3,60.002364097176404,2025-06-03 08h33.52.293540 -0400,
1,0,1,0,2,0,2,0,,,,,,,,,,,,,1111.3426808000077,,,,,,,,1111.3294906000374,1116.3262680000626,1116.3262739999918,1116.342734600068,1128.3264823000645,2,active,44.9,1128.326620100066,1130.3782230999786,18.500000000000142,2.031,1128.3594940999756,,,,,,,,,,,,,,,,,,,,,,,,,,,,,,,,,,,,,,sub-054,47.1,44.9,47.48,COM3,2025-06-03_08h33.26.027,2024_RDpaindiscrimination_maintask,2023.2.3,60.002364097176404,2025-06-03 08h33.52.293540 -0400,
1,0,1,0,3,0,3,0,,,,,,,,,,,,,1130.3929138999665,,,,,,,,1130.3790268000448,1135.376390099991,1135.3763972000452,1135.3929510000162,1147.3767717999872,3,active,44.9,1147.3769121000078,1148.8785576999653,16.500000000000007,1.481,1147.4097488999832,,,,,,,,,,,,,,,,,,,,,,,,,,,,,,,,,,,,,,sub-054,47.1,44.9,47.48,COM3,2025-06-03_08h33.26.027,2024_RDpaindiscrimination_maintask,2023.2.3,60.002364097176404,2025-06-03 08h33.52.293540 -0400,
1,0,1,0,4,0,4,0,,,,,,,,,,,,,1148.8931073000422,,,,,,,,1148.8793439000146,1153.8766259000404,1153.8766315999674,1153.8932017000625,1165.8770079000387,0,inactive,47.1,1165.8771484000608,1167.3122135000303,74.49999999999994,1.415,1165.909988700063,,,,,,,,,,,,,,,,,,,,,,,,,,,,,,,,,,,,,,sub-054,47.1,44.9,47.48,COM3,2025-06-03_08h33.26.027,2024_RDpaindiscrimination_maintask,2023.2.3,60.002364097176404,2025-06-03 08h33.52.293540 -0400,
1,0,1,0,5,0,5,0,,,,,,,,,,,,,1167.3266768000321,,,,,,,,1167.3129572999896,1172.3102529000025,1172.310259000049,1172.3267263000598,1184.3105198000558,1,inactive,47.1,1184.3106620999752,1186.9959002999822,78.49999999999979,2.665,1184.3435619999655,,,,,,,,,,,,,,,,,,,,,,,,,,,,,,,,,,,,,,sub-054,47.1,44.9,47.48,COM3,2025-06-03_08h33.26.027,2024_RDpaindiscrimination_maintask,2023.2.3,60.002364097176404,2025-06-03 08h33.52.293540 -0400,
1,0,1,0,6,0,6,0,,,,,,,,,,,,,1187.0102350000525,,,,,,,,1186.9967162000248,1191.9938956999686,1191.9939017000142,1192.0103868000442,1203.9941205000505,2,active,44.9,1203.9942576000467,1206.1121816000668,29.000000000000146,2.098,1204.027114800061,,,,,,,,,,,,,,,,,,,,,,,,,,,,,,,,,,,,,,sub-054,47.1,44.9,47.48,COM3,2025-06-03_08h33.26.027,2024_RDpaindiscrimination_maintask,2023.2.3,60.002364097176404,2025-06-03 08h33.52.293540 -0400,
1,0,1,0,7,0,7,0,,,,,,,,,,,,,1206.1271959000733,,,,,,,,1206.1129283000482,1211.1107426000526,1211.1107484999811,1211.1272125999676,1223.1109865000471,3,inactive,47.1,1223.1111259000609,1225.413110399968,80.49999999999983,2.281,1223.1441168000456,,,,,,,,,,,,,,,,,,,,,,,,,,,,,,,,,,,,,,sub-054,47.1,44.9,47.48,COM3,2025-06-03_08h33.26.027,2024_RDpaindiscrimination_maintask,2023.2.3,60.002364097176404,2025-06-03 08h33.52.293540 -0400,
1,0,1,0,8,0,8,0,,,,,,,,,,,,,1225.4274370999774,,,,,,,,1225.4138919999823,1230.410942699993,1230.4109481000341,1230.4274916000431,1242.41120089998,0,inactive,47.1,1242.411341900006,1243.9633026999654,78.4999999999999,1.532,1242.4443127000704,,,,,,,,,,,,,,,,,,,,,,,,,,,,,,,,,,,,,,sub-054,47.1,44.9,47.48,COM3,2025-06-03_08h33.26.027,2024_RDpaindiscrimination_maintask,2023.2.3,60.002364097176404,2025-06-03 08h33.52.293540 -0400,
1,0,1,0,9,0,9,0,,,,,,,,,,,,,1243.9776155999862,,,,,,,,1243.9640532999765,1248.9611378000118,1248.961144800065,1248.9776969000231,1260.961468799971,1,active,44.9,1260.9616060999688,1263.9473023000173,20.500000000000078,2.966,1260.9944647999946,,,,,,,,,,,,,,,,,,,,,,,,,,,,,,,,,,,,,,sub-054,47.1,44.9,47.48,COM3,2025-06-03_08h33.26.027,2024_RDpaindiscrimination_maintask,2023.2.3,60.002364097176404,2025-06-03 08h33.52.293540 -0400,
1,0,1,0,10,0,10,0,,,,,,,,,,,,,1263.9612662000582,,,,,,,,1263.9481204000767,1268.9447076000506,1268.9447136999806,1268.9612390999682,1280.945087900036,2,inactive,47.1,1280.9452299000695,1283.0465394000057,75.49999999999984,2.082,1280.978070500074,,,,,,,,,,,,,,,,,,,,,,,,,,,,,,,,,,,,,,sub-054,47.1,44.9,47.48,COM3,2025-06-03_08h33.26.027,2024_RDpaindiscrimination_maintask,2023.2.3,60.002364097176404,2025-06-03 08h33.52.293540 -0400,
1,0,1,0,11,0,11,0,,,,,,,,,,,,,1283.0614249000791,,,,,,,,1283.04737689998,1288.0450079999864,1288.0450141000329,1288.0615353999892,1300.0452956999652,3,inactive,47.1,1300.0454364999896,1301.8977582000662,62.499999999999886,1.832,1300.0782906999812,,,,,,,,,,,,,,,,,,,,,,,,,,,,,,,,,,,,,,sub-054,47.1,44.9,47.48,COM3,2025-06-03_08h33.26.027,2024_RDpaindiscrimination_maintask,2023.2.3,60.002364097176404,2025-06-03 08h33.52.293540 -0400,
1,0,1,0,12,0,12,0,,,,,,,,,,,,,1301.9116944000125,,,,,,,,1301.8979881000705,1306.895312400069,1306.8953185999999,1306.9118460000027,1318.8956700999988,0,active,44.9,1318.895816400065,1321.7142740000272,16.00000000000021,2.798,1318.9286566000665,,,,,,,,,,,,,,,,,,,,,,,,,,,,,,,,,,,,,,sub-054,47.1,44.9,47.48,COM3,2025-06-03_08h33.26.027,2024_RDpaindiscrimination_maintask,2023.2.3,60.002364097176404,2025-06-03 08h33.52.293540 -0400,
1,0,1,0,13,0,13,0,,,,,,,,,,,,,1321.7286920000333,,,,,,,,1321.7150926999748,1326.7122586000478,1326.7122668999946,1326.7287794000003,1338.7125456000213,1,active,44.9,1338.7126954999985,1341.781207300024,8.500000000000203,3.048,1338.7455501999939,,,,,,,,,,,,,,,,,,,,,,,,,,,,,,,,,,,,,,sub-054,47.1,44.9,47.48,COM3,2025-06-03_08h33.26.027,2024_RDpaindiscrimination_maintask,2023.2.3,60.002364097176404,2025-06-03 08h33.52.293540 -0400,
1,0,1,0,14,0,14,0,,,,,,,,,,,,,1341.7956242000218,,,,,,,,1341.7819513999857,1346.779178500059,1346.7791870000074,1346.7956747000571,1358.7795170000754,2,inactive,47.1,1358.7796633000253,1360.082346500014,80.5,1.283,1358.8124949000776,,,,,,,,,,,,,,,,,,,,,,,,,,,,,,,,,,,,,,sub-054,47.1,44.9,47.48,COM3,2025-06-03_08h33.26.027,2024_RDpaindiscrimination_maintask,2023.2.3,60.002364097176404,2025-06-03 08h33.52.293540 -0400,
1,0,1,0,15,0,15,0,,,,,,,,,,,,,1360.0959599000635,,,,,,,,1360.0831761000445,1365.0793807000155,1365.0793867000611,1365.09591490007,1377.0796830999898,3,active,44.9,1377.0798362999922,1379.7161693000235,20.000000000000213,2.617,1377.1127470000647,,,,,,,,,,,,,,,,,,,,,,,,,,,,,,,,,,,,,,sub-054,47.1,44.9,47.48,COM3,2025-06-03_08h33.26.027,2024_RDpaindiscrimination_maintask,2023.2.3,60.002364097176404,2025-06-03 08h33.52.293540 -0400,
1,0,1,0,,,,,0,0,0,0,0,0,0,0,,,,,1385.9295016999822,,,,,,1385.629979499965,1385.9130825999891,,,,,,0,active,47.1,1402.9133754000068,1404.5322108999826,46.99999999999997,1.598,,1379.7167525000405,1379.729415000067,1385.629642300075,1385.9133375000674,1390.912907400052,1390.9129142999882,1390.9294469000306,1402.9133676000638,1402.9463763000676,,,,,,,,,,,,,,,,,,,,,,,,,,,,,sub-054,47.1,44.9,47.48,COM3,2025-06-03_08h33.26.027,2024_RDpaindiscrimination_maintask,2023.2.3,60.002364097176404,2025-06-03 08h33.52.293540 -0400,
1,0,1,0,,,,,0,0,0,0,1,0,1,0,,,,,1404.5463065999793,,,,,,,,,,,,,1,inactive,47.1,1421.5301778999856,1422.7823607000755,81.49999999999989,1.232,,,,,1404.533025200013,1409.529829600011,1409.529836300062,1409.546346200048,1421.5301707000472,1421.5633173000533,,,,,,,,,,,,,,,,,,,,,,,,,,,,,sub-054,47.1,44.9,47.48,COM3,2025-06-03_08h33.26.027,2024_RDpaindiscrimination_maintask,2023.2.3,60.002364097176404,2025-06-03 08h33.52.293540 -0400,
1,0,1,0,,,,,0,0,0,0,,,,,0,0,0,0,1425.0632389000384,,,,,,,,,,,,,2,active,,,,,,,,,,,,,,,,1422.7829070000444,1425.046781299985,1425.0471026999876,1430.046737800003,1430.0467439000495,1430.063283000025,1438.0468206000514,1438.0468206000514,1441.0134100000141,1441.0467482999666,1441.0467482999666,1441.030234200065,3.48,5.32,348,532,8,1.2,0.75,pic-absent,0,n,0.7947480999864638,None,,,,,sub-054,47.1,44.9,47.48,COM3,2025-06-03_08h33.26.027,2024_RDpaindiscrimination_maintask,2023.2.3,60.002364097176404,2025-06-03 08h33.52.293540 -0400,
1,0,1,0,,,,,0,0,0,0,,,,,1,0,1,0,1441.0467482999666,,,,,,,,,,,,,3,inactive,,,,,,,,,,,,,,,,,,1441.0307487000246,1446.0302733000135,1446.0302803000668,1446.0468508000486,1454.0302746000234,1454.0302746000234,1456.9970147999702,1457.0303106000647,1457.0303106000647,1457.0138157000765,3.63,5.17,363,517,8,1.2,0.75,pic-present,1,m,0.6859277999028563,None,,,,,sub-054,47.1,44.9,47.48,COM3,2025-06-03_08h33.26.027,2024_RDpaindiscrimination_maintask,2023.2.3,60.002364097176404,2025-06-03 08h33.52.293540 -0400,
1,0,1,0,,,,,0,0,0,0,,,,,2,0,2,0,1457.0303106000647,,,,,,,,,,,,,0,active,,,,,,,,,,,,,,,,,,1457.0142617999809,1462.0138780999696,1462.013884600019,1462.0303759999806,1470.0138135000598,1470.0138135000598,1472.9805180999683,1473.0139152000193,1473.0139152000193,1472.997347800061,3.46,5.34,346,534,8,1.2,0.75,pic-absent,1,m,0.3190983000677079,None,,,,,sub-054,47.1,44.9,47.48,COM3,2025-06-03_08h33.26.027,2024_RDpaindiscrimination_maintask,2023.2.3,60.002364097176404,2025-06-03 08h33.52.293540 -0400,
1,0,1,0,,,,,0,0,0,0,,,,,3,0,3,0,1473.0139152000193,,,,,,,,,,,,,1,inactive,,,,,,,,,,,,,,,,,,1472.9978044000454,1477.9973792000674,1477.9973864000058,1478.0139646000462,1485.997426200076,1485.997426200076,1488.9640621000435,1488.99738299998,1488.99738299998,1488.9808771000244,3.74,5.06,374,505,8,1.2,0.75,pic-present,1,m,0.2764677000232041,None,,,,,sub-054,47.1,44.9,47.48,COM3,2025-06-03_08h33.26.027,2024_RDpaindiscrimination_maintask,2023.2.3,60.002364097176404,2025-06-03 08h33.52.293540 -0400,
1,0,1,0,,,,,1,0,1,0,0,0,0,0,,,,,1490.5809560000198,,,,,,1488.9813432999654,1490.5746189000783,,,,,,2,inactive,47.1,1507.5646158000454,1509.1495142000495,84.99999999999993,1.565,,,,,1490.5748721000273,1495.5642951000482,1495.5643024999881,1495.580849400023,1507.564607999986,1507.597612200072,,,,,,,,,,,,,,,,,,,,,,,,,,,,,sub-054,47.1,44.9,47.48,COM3,2025-06-03_08h33.26.027,2024_RDpaindiscrimination_maintask,2023.2.3,60.002364097176404,2025-06-03 08h33.52.293540 -0400,
1,0,1,0,,,,,1,0,1,0,1,0,1,0,,,,,1509.1643319000723,,,,,,,,,,,,,3,active,47.1,1526.1482250000117,1527.4668973999796,73.99999999999989,1.298,,,,,1509.1497877000365,1514.1478361000773,1514.1478425000096,1514.164367099991,1526.1482174000703,1526.1811821999727,,,,,,,,,,,,,,,,,,,,,,,,,,,,,sub-054,47.1,44.9,47.48,COM3,2025-06-03_08h33.26.027,2024_RDpaindiscrimination_maintask,2023.2.3,60.002364097176404,2025-06-03 08h33.52.293540 -0400,
1,0,1,0,,,,,1,0,1,0,,,,,0,0,0,0,1529.2980017999653,,,,,,,,,,,,,0,inactive,,,,,,,,,,,,,,,,1527.4670783000765,1529.281583999982,1529.2819067999953,1534.2814272000687,1534.2814337000018,1534.2979240000714,1542.2813592000166,1542.2813592000166,1545.248061900027,1545.281418300001,1545.281418300001,1545.264884800068,3.4,5.4,340,540,8,1.2,0.75,pic-absent,0,n,0.49548739998135716,None,,,,,sub-054,47.1,44.9,47.48,COM3,2025-06-03_08h33.26.027,2024_RDpaindiscrimination_maintask,2023.2.3,60.002364097176404,2025-06-03 08h33.52.293540 -0400,
1,0,1,0,,,,,1,0,1,0,,,,,1,0,1,0,1545.281418300001,,,,,,,,,,,,,1,active,,,,,,,,,,,,,,,,,,1545.2654072999721,1550.2649429000448,1550.2649499999825,1550.2814568000613,1558.2649291000562,1558.2649291000562,1561.231630400056,1561.2649676,1561.2649676,1561.2484720000066,3.7,5.1,370,509,8,1.2,0.75,pic-present,0,n,0.3601757000433281,None,,,,,sub-054,47.1,44.9,47.48,COM3,2025-06-03_08h33.26.027,2024_RDpaindiscrimination_maintask,2023.2.3,60.002364097176404,2025-06-03 08h33.52.293540 -0400,
1,0,1,0,,,,,1,0,1,0,,,,,2,0,2,0,1561.2649676,,,,,,,,,,,,,2,inactive,,,,,,,,,,,,,,,,,,1561.248928099987,1566.2484890000196,1566.2484959000722,1566.2650324000278,1574.2485081000486,1574.2485081000486,1577.2151585000101,1577.2485529000405,1577.2485529000405,1577.2319692000747,4.42,4.38,442,438,8,1.2,0.75,pic-present,1,m,0.3773425000254065,None,,,,,sub-054,47.1,44.9,47.48,COM3,2025-06-03_08h33.26.027,2024_RDpaindiscrimination_maintask,2023.2.3,60.002364097176404,2025-06-03 08h33.52.293540 -0400,
1,0,1,0,,,,,1,0,1,0,,,,,3,0,3,0,1577.2485529000405,,,,,,,,,,,,,3,inactive,,,,,,,,,,,,,,,,,,1577.2324354000157,1582.2320709000342,1582.2320775999688,1582.248556100065,1590.2319639000343,1590.2319639000343,1593.1986702000722,1593.2320058000041,1593.2320058000041,1593.2155020000646,3.29,5.51,329,551,8,1.2,0.75,pic-absent,1,m,0.3485316999722272,None,,,,,sub-054,47.1,44.9,47.48,COM3,2025-06-03_08h33.26.027,2024_RDpaindiscrimination_maintask,2023.2.3,60.002364097176404,2025-06-03 08h33.52.293540 -0400,
1,0,1,0,,,,,2,0,2,0,0,0,0,0,,,,,1594.9154962999746,,,,,,1593.215983400005,1594.8990275000688,,,,,,0,active,47.1,1611.8992078000447,1613.5340829000343,61.999999999999886,1.615,,,,,1594.8993097000057,1599.8988889000611,1599.898895099992,1599.9154669999843,1611.8992005999899,1611.932277200045,,,,,,,,,,,,,,,,,,,,,,,,,,,,,sub-054,47.1,44.9,47.48,COM3,2025-06-03_08h33.26.027,2024_RDpaindiscrimination_maintask,2023.2.3,60.002364097176404,2025-06-03 08h33.52.293540 -0400,
1,0,1,0,,,,,2,0,2,0,1,0,1,0,,,,,1613.549500299967,,,,,,,,,,,,,1,inactive,47.1,1630.532724000048,1632.2511853000615,41.50000000000003,1.699,,,,,1613.5348478000378,1618.5325040000025,1618.5325114000589,1618.5489956999663,1630.5327152999816,1630.5657746000215,,,,,,,,,,,,,,,,,,,,,,,,,,,,,sub-054,47.1,44.9,47.48,COM3,2025-06-03_08h33.26.027,2024_RDpaindiscrimination_maintask,2023.2.3,60.002364097176404,2025-06-03 08h33.52.293540 -0400,
1,0,1,0,,,,,2,0,2,0,,,,,0,0,0,0,1633.8491881999653,,,,,,,,,,,,,2,active,,,,,,,,,,,,,,,,1632.251733400044,1633.8327685999684,1633.833079700009,1638.8327592000132,1638.8327661000658,1638.8492532999953,1646.832708699978,1646.832708699978,1649.799380499986,1649.832746900036,1649.832746900036,1649.8161951999646,3.53,5.27,353,527,8,1.2,0.75,pic-present,1,m,1.556421000044793,None,,,,,sub-054,47.1,44.9,47.48,COM3,2025-06-03_08h33.26.027,2024_RDpaindiscrimination_maintask,2023.2.3,60.002364097176404,2025-06-03 08h33.52.293540 -0400,
1,0,1,0,,,,,2,0,2,0,,,,,1,0,1,0,1649.832746900036,,,,,,,,,,,,,3,inactive,,,,,,,,,,,,,,,,,,1649.8168137000175,1654.816275499994,1654.8162828000495,1654.8327800000552,1662.8162518000463,1662.8162518000463,1665.7829185000155,1665.8162502000341,1665.8162502000341,1665.7997761999723,3.5,5.3,350,530,8,1.2,0.75,pic-absent,1,m,0.4242958000395447,None,,,,,sub-054,47.1,44.9,47.48,COM3,2025-06-03_08h33.26.027,2024_RDpaindiscrimination_maintask,2023.2.3,60.002364097176404,2025-06-03 08h33.52.293540 -0400,
1,0,1,0,,,,,2,0,2,0,,,,,2,0,2,0,1665.8162502000341,,,,,,,,,,,,,0,inactive,,,,,,,,,,,,,,,,,,1665.800245600054,1670.7997956000036,1670.7998023000546,1670.816317699966,1678.7997713000514,1678.7997713000514,1681.7665237999754,1681.7998785000527,1681.7998785000527,1681.7833195000421,4.74,4.06,474,405,8,1.2,0.75,pic-absent,1,m,0.31312920001801103,None,,,,,sub-054,47.1,44.9,47.48,COM3,2025-06-03_08h33.26.027,2024_RDpaindiscrimination_maintask,2023.2.3,60.002364097176404,2025-06-03 08h33.52.293540 -0400,
1,0,1,0,,,,,2,0,2,0,,,,,3,0,3,0,1681.7998785000527,,,,,,,,,,,,,1,active,,,,,,,,,,,,,,,,,,1681.78378529998,1686.783447899972,1686.7834547000239,1686.7999367000302,1694.7833553999662,1694.7833553999662,1697.750061300001,1697.7833478000248,1697.7833478000248,1697.7668379000388,4.04,4.76,404,476,8,1.2,0.75,pic-present,0,n,0.42987360002007335,None,,,,,sub-054,47.1,44.9,47.48,COM3,2025-06-03_08h33.26.027,2024_RDpaindiscrimination_maintask,2023.2.3,60.002364097176404,2025-06-03 08h33.52.293540 -0400,
1,0,1,0,,,,,3,0,3,0,0,0,0,0,,,,,1699.0333769000135,,,,,,1697.7673432000447,1699.0170979000395,,,,,,2,inactive,47.1,1716.017211999977,1717.6687382999808,47.9999999999999,1.525,,,,,1699.0174130999949,1704.016907399986,1704.0169144000392,1704.0334399000276,1716.017204600037,1716.1502674999647,,,,,,,,,,,,,,,,,,,,,,,,,,,,,sub-054,47.1,44.9,47.48,COM3,2025-06-03_08h33.26.027,2024_RDpaindiscrimination_maintask,2023.2.3,60.002364097176404,2025-06-03 08h33.52.293540 -0400,
1,0,1,0,,,,,3,0,3,0,1,0,1,0,,,,,1717.6836140999803,,,,,,,,,,,,,3,active,47.1,1734.6674944000551,1736.2682367999805,41.99999999999993,1.58,,,,,1717.6695141000673,1722.6671450000722,1722.6671523000114,1722.6836726000765,1734.6674870999996,1734.700510900002,,,,,,,,,,,,,,,,,,,,,,,,,,,,,sub-054,47.1,44.9,47.48,COM3,2025-06-03_08h33.26.027,2024_RDpaindiscrimination_maintask,2023.2.3,60.002364097176404,2025-06-03 08h33.52.293540 -0400,
1,0,1,0,,,,,3,0,3,0,,,,,0,0,0,0,1737.9005443999777,,,,,,,,,,,,,0,inactive,,,,,,,,,,,,,,,,1736.2684531999985,1737.884114800021,1737.8844115000684,1742.8840636999812,1742.8840699000284,1742.9006018000655,1750.88403080008,1750.88403080008,1753.8507443000562,1753.8840690000216,1753.8840690000216,1753.8675443000393,4.31,4.49,430,449,8,1.2,0.75,pic-present,1,m,0.38847520004492253,None,,,,,sub-054,47.1,44.9,47.48,COM3,2025-06-03_08h33.26.027,2024_RDpaindiscrimination_maintask,2023.2.3,60.002364097176404,2025-06-03 08h33.52.293540 -0400,
1,0,1,0,,,,,3,0,3,0,,,,,1,0,1,0,1753.8840690000216,,,,,,,,,,,,,1,active,,,,,,,,,,,,,,,,,,1753.8680802000454,1758.8676005000016,1758.8676069000503,1758.8841278000036,1766.8676030000206,1766.8676030000206,1769.8342745000264,1769.8675868000137,1769.8675868000137,1769.8510722999927,4.05,4.75,405,475,8,1.2,0.75,pic-absent,0,n,0.7609479000093415,None,,,,,sub-054,47.1,44.9,47.48,COM3,2025-06-03_08h33.26.027,2024_RDpaindiscrimination_maintask,2023.2.3,60.002364097176404,2025-06-03 08h33.52.293540 -0400,
1,0,1,0,,,,,3,0,3,0,,,,,2,0,2,0,1769.8675868000137,,,,,,,,,,,,,2,active,,,,,,,,,,,,,,,,,,1769.8515370000387,1774.8511540000327,1774.8511602999642,1774.8676720000803,1782.8510991999647,1782.8510991999647,1785.8177629000274,1785.8510977000697,1785.8510977000697,1785.8345778000075,3.38,5.42,338,542,8,1.2,0.75,pic-present,0,n,0.4261100000003353,None,,,,,sub-054,47.1,44.9,47.48,COM3,2025-06-03_08h33.26.027,2024_RDpaindiscrimination_maintask,2023.2.3,60.002364097176404,2025-06-03 08h33.52.293540 -0400,
1,0,1,0,,,,,3,0,3,0,,,,,3,0,3,0,1785.8510977000697,,,,,,,,,,,,,3,active,,,,,,,,,,,,,,,,,,1785.8351052000653,1790.8346872000257,1790.8346939000767,1790.851201100042,1798.8346349999774,1798.8346349999774,1801.8014075000538,1801.834724400076,1801.834724400076,1801.8183223999804,3.93,4.87,393,487,8,1.2,0.75,pic-absent,1,m,0.046232499997131526,None,,,,,sub-054,47.1,44.9,47.48,COM3,2025-06-03_08h33.26.027,2024_RDpaindiscrimination_maintask,2023.2.3,60.002364097176404,2025-06-03 08h33.52.293540 -0400,
,,,,,,,,,,,,,,,,,,,,,,,,,,,,,,,,,,,,,,,,,,,,,,,,,,,,,,,,,,,,,,,,,,,,,,,,,,1801.8187590000452,1804.7850014000433,1804.785024599987,1814.7849485999905,,,,,,,,,,,
