trials.thisRepN,trials.thisTrialN,trials.thisN,trials.thisIndex,loop_test.thisRepN,loop_test.thisTrialN,loop_test.thisN,loop_test.thisIndex,loop_eval_discri.thisRepN,loop_eval_discri.thisTrialN,loop_eval_discri.thisN,loop_eval_discri.thisIndex,loop_eval.thisRepN,loop_eval.thisTrialN,loop_eval.thisN,loop_eval.thisIndex,loop_discri.thisRepN,loop_discri.thisTrialN,loop_discri.thisN,loop_discri.thisIndex,thisRow.t,notes,Set_up.started,Set_up.stopped,electrode_check.started,electrode_check.stopped,instructions_eval.started,instructions_eval.stopped,pause_5_test.started,pause_5_test.stopped,Phase_Test.started,thermode_locali.started,Phase_Test.stopped,loca_thermode,condition,temp_trial_sent,eval_douleur.started,eval_douleur.stopped,ratingScale.response,ratingScale.rt,thermode_locali.stopped,Fin_test.started,text.started,Fin_test.stopped,pause_5_EVA.started,pause_5_EVA.stopped,tâche_EVA.started,thermode_locali_EVA.started,thermode_locali_EVA.stopped,tâche_EVA.stopped,instructions_discrim.started,instructions_discrim.stopped,pause_5_pic.started,pause_5_pic.stopped,tâche_PIC.started,thermode_locali_pic.started,percu_or.started,responser.started,thermode_locali_pic.stopped,percu_or.stopped,responser.stopped,tâche_PIC.stopped,dur_plateau1,dur_plateau2,dur_plateau1_sent,dur_plateau2_sent,start_plateau_2_resp,dur_pic,dur_rise,pic_presence,pic_response,discrimin_resp.keys,discrimin_resp.rt,discrimin_resp.duration,break_entre_bloc.started,break_entre_bloc.stopped,merci.started,merci.stopped,participant,temp_flat,temp_active,temp_pic_set,com_thermode,date,expName,psychopyVersion,frameRate,expStart,
0,0,0,0,0,0,0,0,,,,,,,,,,,,,198.96349290000035,,0.011491600000226754,191.81367690000025,191.81401259999984,196.9803535000001,196.98036070000035,198.93037530000038,198.93066389999967,203.93042349999996,203.930429,203.94960139999966,215.9470527000003,0,active,42.3,215.9472811000005,220.49848670000029,6.500000000000165,4.527,,,,,,,,,,,,,,,,,,,,,,,,,,,,,,,,,,,,,,,sub-064,46.4,42.3,47.2,COM3,2025-09-09_13h48.13.120,2024_RDpaindiscrimination_maintask,2023.2.3,60.012554626508056,2025-09-09 13h48.41.325578 -0400,
0,0,0,0,1,0,1,0,,,,,,,,,,,,,220.51371889999973,,,,,,,,220.49936239999988,225.4971473000005,225.4971531000001,225.51368759999968,237.49751670000023,1,active,42.3,237.49765070000012,238.94910189999973,17.500000000000068,1.432,237.53058330000022,,,,,,,,,,,,,,,,,,,,,,,,,,,,,,,,,,,,,,sub-064,46.4,42.3,47.2,COM3,2025-09-09_13h48.13.120,2024_RDpaindiscrimination_maintask,2023.2.3,60.012554626508056,2025-09-09 13h48.41.325578 -0400,
0,0,0,0,2,0,2,0,,,,,,,,,,,,,238.96390710000014,,,,,,,,238.94984560000012,243.94741460000023,243.94743190000008,243.96396879999975,255.94774460000008,2,inactive,46.4,255.94788189999963,258.36637840000003,47.999999999999936,2.398,255.98065099999985,,,,,,,,,,,,,,,,,,,,,,,,,,,,,,,,,,,,,,sub-064,46.4,42.3,47.2,COM3,2025-09-09_13h48.13.120,2024_RDpaindiscrimination_maintask,2023.2.3,60.012554626508056,2025-09-09 13h48.41.325578 -0400,
0,0,0,0,3,0,3,0,,,,,,,,,,,,,258.43079659999967,,,,,,,,258.36718329999985,263.3807465,263.38075200000003,263.39742130000013,275.38104589999966,3,inactive,46.4,275.3812121000001,276.9000745000003,51.49999999999992,1.499,,,,,,,,,,,,,,,,,,,,,,,,,,,,,,,,,,,,,,,sub-064,46.4,42.3,47.2,COM3,2025-09-09_13h48.13.120,2024_RDpaindiscrimination_maintask,2023.2.3,60.012554626508056,2025-09-09 13h48.41.325578 -0400,
0,0,0,0,4,0,4,0,,,,,,,,,,,,,276.91432390000045,,,,,,,,276.90081960000043,281.8978175000002,281.89782379999997,281.91437980000046,293.8981571000004,0,active,42.3,293.89829569999984,295.9834215000001,14.000000000000101,2.065,293.93113640000047,,,,,,,,,,,,,,,,,,,,,,,,,,,,,,,,,,,,,,sub-064,46.4,42.3,47.2,COM3,2025-09-09_13h48.13.120,2024_RDpaindiscrimination_maintask,2023.2.3,60.012554626508056,2025-09-09 13h48.41.325578 -0400,
0,0,0,0,5,0,5,0,,,,,,,,,,,,,295.99784309999995,,,,,,,,295.9842348000002,300.9812791000004,300.9812850999997,300.99788439999975,312.9816579999997,1,inactive,46.4,312.98179640000035,314.2004652000005,34.50000000000006,1.199,313.0147274000001,,,,,,,,,,,,,,,,,,,,,,,,,,,,,,,,,,,,,,sub-064,46.4,42.3,47.2,COM3,2025-09-09_13h48.13.120,2024_RDpaindiscrimination_maintask,2023.2.3,60.012554626508056,2025-09-09 13h48.41.325578 -0400,
0,0,0,0,6,0,6,0,,,,,,,,,,,,,314.2148364000004,,,,,,,,314.20123839999997,319.1982355,319.1982413000005,319.21476619999976,331.19847709999976,2,inactive,46.4,331.1986146999998,332.56631840000045,47.49999999999997,1.348,331.23158090000015,,,,,,,,,,,,,,,,,,,,,,,,,,,,,,,,,,,,,,sub-064,46.4,42.3,47.2,COM3,2025-09-09_13h48.13.120,2024_RDpaindiscrimination_maintask,2023.2.3,60.012554626508056,2025-09-09 13h48.41.325578 -0400,
0,0,0,0,7,0,7,0,,,,,,,,,,,,,332.58156789999975,,,,,,,,332.56707259999985,337.5651462000005,337.56515260000015,337.5816168000001,349.5652399999999,3,active,42.3,349.5653775999999,351.25030380000044,15.000000000000004,1.664,349.59828300000027,,,,,,,,,,,,,,,,,,,,,,,,,,,,,,,,,,,,,,sub-064,46.4,42.3,47.2,COM3,2025-09-09_13h48.13.120,2024_RDpaindiscrimination_maintask,2023.2.3,60.012554626508056,2025-09-09 13h48.41.325578 -0400,
0,0,0,0,8,0,8,0,,,,,,,,,,,,,351.26500750000014,,,,,,,,351.25109280000015,356.2484929000002,356.24849900000027,356.2650160000003,368.2488970000004,0,inactive,46.4,368.24903319999976,371.5175269000001,46.000000000000085,3.248,368.28195099999994,,,,,,,,,,,,,,,,,,,,,,,,,,,,,,,,,,,,,,sub-064,46.4,42.3,47.2,COM3,2025-09-09_13h48.13.120,2024_RDpaindiscrimination_maintask,2023.2.3,60.012554626508056,2025-09-09 13h48.41.325578 -0400,
0,0,0,0,9,0,9,0,,,,,,,,,,,,,371.53192130000025,,,,,,,,371.5183294999997,376.51548139999977,376.51548790000015,376.5320142999999,388.5156629000003,1,inactive,46.4,388.5158013999999,390.5334496000005,61.00000000000003,1.997,388.5487936999998,,,,,,,,,,,,,,,,,,,,,,,,,,,,,,,,,,,,,,sub-064,46.4,42.3,47.2,COM3,2025-09-09_13h48.13.120,2024_RDpaindiscrimination_maintask,2023.2.3,60.012554626508056,2025-09-09 13h48.41.325578 -0400,
0,0,0,0,10,0,10,0,,,,,,,,,,,,,390.5487218999997,,,,,,,,390.5336883,395.5322292999999,395.53223549999984,395.5487567,407.5326365000001,2,active,42.3,407.5327747000001,409.0520214999997,18.000000000000007,1.499,407.5656525000004,,,,,,,,,,,,,,,,,,,,,,,,,,,,,,,,,,,,,,sub-064,46.4,42.3,47.2,COM3,2025-09-09_13h48.13.120,2024_RDpaindiscrimination_maintask,2023.2.3,60.012554626508056,2025-09-09 13h48.41.325578 -0400,
0,0,0,0,11,0,11,0,,,,,,,,,,,,,409.06568549999974,,,,,,,,409.05280740000035,414.0491973999997,414.0492039999999,414.06573540000045,426.04961079999975,3,active,42.3,426.0497588999997,430.05132930000036,25.50000000000006,3.981,426.0824113999997,,,,,,,,,,,,,,,,,,,,,,,,,,,,,,,,,,,,,,sub-064,46.4,42.3,47.2,COM3,2025-09-09_13h48.13.120,2024_RDpaindiscrimination_maintask,2023.2.3,60.012554626508056,2025-09-09 13h48.41.325578 -0400,
0,0,0,0,12,0,12,0,,,,,,,,,,,,,430.06587169999966,,,,,,,,430.05204909999975,435.0493185000005,435.04932439999993,435.0658954999999,447.04967060000035,0,inactive,46.4,447.04980650000016,448.9846626999997,56.49999999999991,1.868,447.1326964,,,,,,,,,,,,,,,,,,,,,,,,,,,,,,,,,,,,,,sub-064,46.4,42.3,47.2,COM3,2025-09-09_13h48.13.120,2024_RDpaindiscrimination_maintask,2023.2.3,60.012554626508056,2025-09-09 13h48.41.325578 -0400,
0,0,0,0,13,0,13,0,,,,,,,,,,,,,448.9994561000003,,,,,,,,448.9854058000001,453.9828451000003,453.9828514000001,453.99942720000035,465.9832237999999,1,active,42.3,465.9833607999999,468.7189864000002,26.000000000000192,2.716,466.01623970000037,,,,,,,,,,,,,,,,,,,,,,,,,,,,,,,,,,,,,,sub-064,46.4,42.3,47.2,COM3,2025-09-09_13h48.13.120,2024_RDpaindiscrimination_maintask,2023.2.3,60.012554626508056,2025-09-09 13h48.41.325578 -0400,
0,0,0,0,14,0,14,0,,,,,,,,,,,,,468.7329017000002,,,,,,,,468.7197071999999,473.7164657000003,473.7164717000005,473.73296819999996,485.71674749999966,2,active,42.3,485.7168885000001,488.73476720000053,23.500000000000068,2.998,485.74984719999975,,,,,,,,,,,,,,,,,,,,,,,,,,,,,,,,,,,,,,sub-064,46.4,42.3,47.2,COM3,2025-09-09_13h48.13.120,2024_RDpaindiscrimination_maintask,2023.2.3,60.012554626508056,2025-09-09 13h48.41.325578 -0400,
0,0,0,0,15,0,15,0,,,,,,,,,,,,,488.7498131000002,,,,,,,,488.73552970000037,493.7333159,493.73332260000006,493.74975799999993,505.7336455000004,3,inactive,46.4,505.7337814000002,507.4031458999998,73.00000000000003,1.649,505.7666638999999,,,,,,,,,,,,,,,,,,,,,,,,,,,,,,,,,,,,,,sub-064,46.4,42.3,47.2,COM3,2025-09-09_13h48.13.120,2024_RDpaindiscrimination_maintask,2023.2.3,60.012554626508056,2025-09-09 13h48.41.325578 -0400,
0,0,0,0,,,,,0,0,0,0,0,0,0,0,,,,,534.6002909999997,,,,,,534.1675394000004,534.5838377999999,,,,,,0,inactive,46.4,551.5841057999996,554.4861539000003,50.99999999999997,2.882,,507.40370110000003,507.4166978000003,534.1671956999999,534.5841098999999,539.5838124000002,539.5838192000001,539.6003180999996,551.6171334999999,551.5840982,,,,,,,,,,,,,,,,,,,,,,,,,,,,,sub-064,46.4,42.3,47.2,COM3,2025-09-09_13h48.13.120,2024_RDpaindiscrimination_maintask,2023.2.3,60.012554626508056,2025-09-09 13h48.41.325578 -0400,
0,0,0,0,,,,,0,0,0,0,1,0,1,0,,,,,554.5005999000005,,,,,,,,,,,,,1,active,46.4,571.4843375999999,573.6192435000003,39.50000000000014,2.115,,,,,554.4869366000003,559.4839492000001,559.4839557000005,559.5005692000004,571.5173639000004,571.4843308,,,,,,,,,,,,,,,,,,,,,,,,,,,,,sub-064,46.4,42.3,47.2,COM3,2025-09-09_13h48.13.120,2024_RDpaindiscrimination_maintask,2023.2.3,60.012554626508056,2025-09-09 13h48.41.325578 -0400,
0,0,0,0,,,,,0,0,0,0,,,,,0,0,0,0,575.3840194000004,,,,,,,,,,,,,2,inactive,,,,,,,,,,,,,,,,573.6198153000005,575.3675355000005,575.3678281000002,580.3674983999999,580.3675050000002,580.3840235999996,588.3674824,588.3674824,591.3342180999998,591.3675518,591.3675518,591.3510550999999,4.43,4.37,443,437,8,1.2,0.75,pic-absent,0,n,1.253335800000059,None,,,,,sub-064,46.4,42.3,47.2,COM3,2025-09-09_13h48.13.120,2024_RDpaindiscrimination_maintask,2023.2.3,60.012554626508056,2025-09-09 13h48.41.325578 -0400,
0,0,0,0,,,,,0,0,0,0,,,,,1,0,1,0,591.3675518,,,,,,,,,,,,,3,inactive,,,,,,,,,,,,,,,,,,591.3516761000001,596.3510496999997,596.3510563999998,596.3675866000003,604.3510158999998,604.3510158999998,607.3177143000003,607.3510809999998,607.3510809999998,607.3345431999996,3.26,5.54,326,554,8,1.2,0.75,pic-present,1,m,0.43698200000017096,None,,,,,sub-064,46.4,42.3,47.2,COM3,2025-09-09_13h48.13.120,2024_RDpaindiscrimination_maintask,2023.2.3,60.012554626508056,2025-09-09 13h48.41.325578 -0400,
0,0,0,0,,,,,0,0,0,0,,,,,2,0,2,0,607.3510809999998,,,,,,,,,,,,,0,active,,,,,,,,,,,,,,,,,,607.3350289999998,612.3345133000003,612.3345190999999,612.3511164000001,620.3345582000002,620.3345582000002,623.3011615000005,623.3344815999999,623.3344815999999,623.3180353999996,4.03,4.77,403,476,8,1.2,0.75,pic-absent,1,m,0.5301058000004559,None,,,,,sub-064,46.4,42.3,47.2,COM3,2025-09-09_13h48.13.120,2024_RDpaindiscrimination_maintask,2023.2.3,60.012554626508056,2025-09-09 13h48.41.325578 -0400,
0,0,0,0,,,,,0,0,0,0,,,,,3,0,3,0,623.3344815999999,,,,,,,,,,,,,1,inactive,,,,,,,,,,,,,,,,,,623.3184751999997,628.3180702999998,628.3180775000001,628.3344921999997,636.3180173000001,636.3180173000001,639.2847302,639.3179735000003,639.3179735000003,639.3015359000001,4.53,4.27,453,426,8,1.2,0.75,pic-present,1,m,0.5258573000000979,None,,,,,sub-064,46.4,42.3,47.2,COM3,2025-09-09_13h48.13.120,2024_RDpaindiscrimination_maintask,2023.2.3,60.012554626508056,2025-09-09 13h48.41.325578 -0400,
0,0,0,0,,,,,1,0,1,0,0,0,0,0,,,,,640.4679885000005,,,,,,639.3020606999999,640.4515905999997,,,,,,2,active,46.4,657.4518660000003,659.1368675000003,26.999999999999975,1.664,,,,,640.451881,645.4515162999996,645.4515228999999,645.4680846000001,657.4852663000001,657.4518588000001,,,,,,,,,,,,,,,,,,,,,,,,,,,,,sub-064,46.4,42.3,47.2,COM3,2025-09-09_13h48.13.120,2024_RDpaindiscrimination_maintask,2023.2.3,60.012554626508056,2025-09-09 13h48.41.325578 -0400,
0,0,0,0,,,,,1,0,1,0,1,0,1,0,,,,,659.1516582000004,,,,,,,,,,,,,3,inactive,46.4,676.1354207000004,678.1699562000003,56.00000000000005,2.014,,,,,659.1375874000005,664.1350051,664.1350127000005,664.1515913000003,676.1684518000002,676.1354134000003,,,,,,,,,,,,,,,,,,,,,,,,,,,,,sub-064,46.4,42.3,47.2,COM3,2025-09-09_13h48.13.120,2024_RDpaindiscrimination_maintask,2023.2.3,60.012554626508056,2025-09-09 13h48.41.325578 -0400,
0,0,0,0,,,,,1,0,1,0,,,,,0,0,0,0,679.8016995999997,,,,,,,,,,,,,0,active,,,,,,,,,,,,,,,,678.1704866999999,679.7853175999999,679.7856399000002,684.7852773000004,684.7852832999997,684.8017494000005,692.7851638000002,692.7851638000002,695.7518577000001,695.7851950000004,695.7851950000004,695.7687343999996,3.45,5.35,345,535,8,1.2,0.75,pic-present,0,n,1.367133499999909,None,,,,,sub-064,46.4,42.3,47.2,COM3,2025-09-09_13h48.13.120,2024_RDpaindiscrimination_maintask,2023.2.3,60.012554626508056,2025-09-09 13h48.41.325578 -0400,
0,0,0,0,,,,,1,0,1,0,,,,,1,0,1,0,695.7851950000004,,,,,,,,,,,,,1,active,,,,,,,,,,,,,,,,,,695.7692749999997,700.7687766999998,700.7687833,700.7852492000002,708.7687308000004,708.7687308000004,711.7354167000003,711.7687262,711.7687262,711.7522555000005,3.73,5.07,373,507,8,1.2,0.75,pic-absent,0,n,0.3552362999998877,None,,,,,sub-064,46.4,42.3,47.2,COM3,2025-09-09_13h48.13.120,2024_RDpaindiscrimination_maintask,2023.2.3,60.012554626508056,2025-09-09 13h48.41.325578 -0400,
0,0,0,0,,,,,1,0,1,0,,,,,2,0,2,0,711.7687262,,,,,,,,,,,,,2,inactive,,,,,,,,,,,,,,,,,,711.7527032999997,716.7523120000005,716.7523190000002,716.7688727000004,724.7522878,724.7522878,727.7190203,727.7522402000004,727.7522402000004,727.7358862000001,3.76,5.04,376,504,8,1.2,0.75,pic-present,1,m,0.6513291999999637,None,,,,,sub-064,46.4,42.3,47.2,COM3,2025-09-09_13h48.13.120,2024_RDpaindiscrimination_maintask,2023.2.3,60.012554626508056,2025-09-09 13h48.41.325578 -0400,
0,0,0,0,,,,,1,0,1,0,,,,,3,0,3,0,727.7522402000004,,,,,,,,,,,,,3,active,,,,,,,,,,,,,,,,,,727.7363335999999,732.7357948999997,732.7358018000004,732.7523991999997,740.7357970000003,740.7357970000003,743.7024787999999,743.7358136000003,743.7358136000003,743.7192971000004,4.72,4.08,472,408,8,1.2,0.75,pic-present,1,m,0.5529347000001508,None,,,,,sub-064,46.4,42.3,47.2,COM3,2025-09-09_13h48.13.120,2024_RDpaindiscrimination_maintask,2023.2.3,60.012554626508056,2025-09-09 13h48.41.325578 -0400,
0,0,0,0,,,,,2,0,2,0,0,0,0,0,,,,,744.9524950000005,,,,,,743.7198121000001,744.9361295999997,,,,,,0,inactive,46.4,761.9363490000005,763.4213013999997,50.50000000000007,1.464,,,,,744.9364287999997,749.9360119000003,749.9360186000004,749.9525402999998,761.9693399999996,761.9363415999997,,,,,,,,,,,,,,,,,,,,,,,,,,,,,sub-064,46.4,42.3,47.2,COM3,2025-09-09_13h48.13.120,2024_RDpaindiscrimination_maintask,2023.2.3,60.012554626508056,2025-09-09 13h48.41.325578 -0400,
0,0,0,0,,,,,2,0,2,0,1,0,1,0,,,,,763.4360459,,,,,,,,,,,,,1,active,46.4,780.4198115999998,782.4724882,36.50000000000012,2.032,,,,,763.4215470999998,768.4194575000001,768.4194637999999,768.4360558999997,780.4528065000004,780.4198044000004,,,,,,,,,,,,,,,,,,,,,,,,,,,,,sub-064,46.4,42.3,47.2,COM3,2025-09-09_13h48.13.120,2024_RDpaindiscrimination_maintask,2023.2.3,60.012554626508056,2025-09-09 13h48.41.325578 -0400,
0,0,0,0,,,,,2,0,2,0,,,,,0,0,0,0,783.8861507000001,,,,,,,,,,,,,2,active,,,,,,,,,,,,,,,,782.4730189000002,783.8697955999996,783.8700896999999,788.8696698000003,788.8696763999997,788.8862593000003,796.8696995999999,796.8696995999999,799.8364281000004,799.8697285999997,799.8697285999997,799.8532375000004,4.6,4.2,459,420,8,1.2,0.75,pic-absent,1,m,0.9835034999996424,None,,,,,sub-064,46.4,42.3,47.2,COM3,2025-09-09_13h48.13.120,2024_RDpaindiscrimination_maintask,2023.2.3,60.012554626508056,2025-09-09 13h48.41.325578 -0400,
0,0,0,0,,,,,2,0,2,0,,,,,1,0,1,0,799.8697285999997,,,,,,,,,,,,,3,inactive,,,,,,,,,,,,,,,,,,799.8537949000001,804.8532081000003,804.8532150000001,804.8697425999999,812.8532068000004,812.8532068000004,815.8198339,815.8531948,815.8531948,815.8368155999997,3.27,5.53,327,553,8,1.2,0.75,pic-absent,0,n,0.36242700000002515,None,,,,,sub-064,46.4,42.3,47.2,COM3,2025-09-09_13h48.13.120,2024_RDpaindiscrimination_maintask,2023.2.3,60.012554626508056,2025-09-09 13h48.41.325578 -0400,
0,0,0,0,,,,,2,0,2,0,,,,,2,0,2,0,815.8531948,,,,,,,,,,,,,0,active,,,,,,,,,,,,,,,,,,815.8373276000002,820.8367323000002,820.8367391000002,820.8532507,828.8366257999996,828.8366257999996,831.8033570999996,831.8366943000001,831.8366943000001,831.8201688999998,4.44,4.36,444,436,8,1.2,0.75,pic-present,1,m,0.5086252999999488,None,,,,,sub-064,46.4,42.3,47.2,COM3,2025-09-09_13h48.13.120,2024_RDpaindiscrimination_maintask,2023.2.3,60.012554626508056,2025-09-09 13h48.41.325578 -0400,
0,0,0,0,,,,,2,0,2,0,,,,,3,0,3,0,831.8366943000001,,,,,,,,,,,,,1,active,,,,,,,,,,,,,,,,,,831.8206175000005,836.8202517,836.8202582000004,836.8367463000004,844.8201577,844.8201577,847.7868659000005,847.8201995999998,847.8201995999998,847.8036508000005,4.42,4.38,442,438,8,1.2,0.75,pic-absent,0,n,1.0155559999993784,None,,,,,sub-064,46.4,42.3,47.2,COM3,2025-09-09_13h48.13.120,2024_RDpaindiscrimination_maintask,2023.2.3,60.012554626508056,2025-09-09 13h48.41.325578 -0400,
0,0,0,0,,,,,3,0,3,0,0,0,0,0,,,,,849.3535360000005,,,,,,847.8041776,849.3371921999997,,,,,,2,active,46.4,866.3374436000004,867.8231650999996,30.0,1.465,,,,,849.3374693000005,854.3370937,854.3371009000002,854.3536331000005,866.3704164000001,866.3374351000002,,,,,,,,,,,,,,,,,,,,,,,,,,,,,sub-064,46.4,42.3,47.2,COM3,2025-09-09_13h48.13.120,2024_RDpaindiscrimination_maintask,2023.2.3,60.012554626508056,2025-09-09 13h48.41.325578 -0400,
0,0,0,0,,,,,3,0,3,0,1,0,1,0,,,,,867.8370439,,,,,,,,,,,,,3,inactive,46.4,884.8207752999997,886.0235479000003,51.00000000000003,1.183,,,,,867.8239432,872.8206341000005,872.8206402000005,872.8371606000001,884.8538239999998,884.8207683999999,,,,,,,,,,,,,,,,,,,,,,,,,,,,,sub-064,46.4,42.3,47.2,COM3,2025-09-09_13h48.13.120,2024_RDpaindiscrimination_maintask,2023.2.3,60.012554626508056,2025-09-09 13h48.41.325578 -0400,
0,0,0,0,,,,,3,0,3,0,,,,,0,0,0,0,887.2205265000002,,,,,,,,,,,,,0,inactive,,,,,,,,,,,,,,,,886.0241026000003,887.2041142999997,887.2044280999999,892.2040714000004,892.2040782000004,892.2205697999998,900.2041497999999,900.2041497999999,903.1708025999997,903.2041402000004,903.2041402000004,903.1876256000005,4.66,4.14,466,413,8,1.2,0.75,pic-present,0,n,0.9727265000001353,None,,,,,sub-064,46.4,42.3,47.2,COM3,2025-09-09_13h48.13.120,2024_RDpaindiscrimination_maintask,2023.2.3,60.012554626508056,2025-09-09 13h48.41.325578 -0400,
0,0,0,0,,,,,3,0,3,0,,,,,1,0,1,0,903.2041402000004,,,,,,,,,,,,,1,active,,,,,,,,,,,,,,,,,,903.1881450000001,908.1876558000004,908.1876633000002,908.2041086999998,916.1876165000003,916.1876165000003,919.1543147000002,919.1876374000003,919.1876374000003,919.1711295000005,3.74,5.06,374,505,8,1.2,0.75,pic-present,1,m,0.40055710000069666,None,,,,,sub-064,46.4,42.3,47.2,COM3,2025-09-09_13h48.13.120,2024_RDpaindiscrimination_maintask,2023.2.3,60.012554626508056,2025-09-09 13h48.41.325578 -0400,
0,0,0,0,,,,,3,0,3,0,,,,,2,0,2,0,919.1876374000003,,,,,,,,,,,,,2,inactive,,,,,,,,,,,,,,,,,,919.1716088000003,924.1710414999998,924.1710475,924.1875695999997,932.1709897999999,932.1709897999999,935.1377172000002,935.1711228000004,935.1711228000004,935.1545372,4.36,4.44,436,444,8,1.2,0.75,pic-absent,0,n,1.2570048999996288,None,,,,,sub-064,46.4,42.3,47.2,COM3,2025-09-09_13h48.13.120,2024_RDpaindiscrimination_maintask,2023.2.3,60.012554626508056,2025-09-09 13h48.41.325578 -0400,
0,0,0,0,,,,,3,0,3,0,,,,,3,0,3,0,935.1711228000004,,,,,,,,,,,,,3,inactive,,,,,,,,,,,,,,,,,,935.1549826999999,940.1545794000003,940.1545864,940.1711490999996,948.1546445000004,948.1546445000004,951.1212329,951.1544810000005,951.1544810000005,951.1380307,3.66,5.14,366,514,8,1.2,0.75,pic-absent,1,m,1.5825404999995953,None,,,,,sub-064,46.4,42.3,47.2,COM3,2025-09-09_13h48.13.120,2024_RDpaindiscrimination_maintask,2023.2.3,60.012554626508056,2025-09-09 13h48.41.325578 -0400,
1,0,1,0,0,0,0,0,,,,,,,,,,,,,978.6049266999999,,,,976.7718434999997,977.3883941000004,977.3884012999997,978.5883824000002,978.5886688,983.5883598,983.5883665000001,983.6048882000005,995.5884544,0,active,42.3,995.5886533000003,997.1906589999999,26.000000000000085,1.505,,,,,,,,,,,,,,,,,,,,,,,,,,,,,,,,,,,951.1384470000003,976.7717233000003,,,sub-064,46.4,42.3,47.2,COM3,2025-09-09_13h48.13.120,2024_RDpaindiscrimination_maintask,2023.2.3,60.012554626508056,2025-09-09 13h48.41.325578 -0400,
1,0,1,0,1,0,1,0,,,,,,,,,,,,,997.2051348000005,,,,,,,,997.1912238000004,1002.1885738000001,1002.1885800999999,1002.2051201000004,1014.1888491999998,1,inactive,46.4,1014.1889885999999,1016.6405100000002,51.4999999999999,2.432,1014.2219427999999,,,,,,,,,,,,,,,,,,,,,,,,,,,,,,,,,,,,,,sub-064,46.4,42.3,47.2,COM3,2025-09-09_13h48.13.120,2024_RDpaindiscrimination_maintask,2023.2.3,60.012554626508056,2025-09-09 13h48.41.325578 -0400,
1,0,1,0,2,0,2,0,,,,,,,,,,,,,1016.6553651000004,,,,,,,,1016.6412528000001,1021.6387814999998,1021.6387880000002,1021.6553229000001,1033.6390358999997,2,inactive,46.4,1033.6391740999998,1035.1910172999997,70.50000000000003,1.532,1033.6720922000004,,,,,,,,,,,,,,,,,,,,,,,,,,,,,,,,,,,,,,sub-064,46.4,42.3,47.2,COM3,2025-09-09_13h48.13.120,2024_RDpaindiscrimination_maintask,2023.2.3,60.012554626508056,2025-09-09 13h48.41.325578 -0400,
1,0,1,0,3,0,3,0,,,,,,,,,,,,,1035.2054193000004,,,,,,,,1035.1913229000002,1040.1889868999997,1040.1889933000002,1040.2055097000002,1052.1892651999997,3,active,42.3,1052.1894032,1054.2578640000002,38.000000000000114,2.049,1052.2223069000001,,,,,,,,,,,,,,,,,,,,,,,,,,,,,,,,,,,,,,sub-064,46.4,42.3,47.2,COM3,2025-09-09_13h48.13.120,2024_RDpaindiscrimination_maintask,2023.2.3,60.012554626508056,2025-09-09 13h48.41.325578 -0400,
1,0,1,0,4,0,4,0,,,,,,,,,,,,,1054.2723320000005,,,,,,,,1054.2582285999997,1059.2558448,1059.2558526000003,1059.2723364000003,1071.2560862999999,0,inactive,46.4,1071.2562275999999,1072.6080589000003,48.499999999999936,1.333,1071.2891710000004,,,,,,,,,,,,,,,,,,,,,,,,,,,,,,,,,,,,,,sub-064,46.4,42.3,47.2,COM3,2025-09-09_13h48.13.120,2024_RDpaindiscrimination_maintask,2023.2.3,60.012554626508056,2025-09-09 13h48.41.325578 -0400,
1,0,1,0,5,0,5,0,,,,,,,,,,,,,1072.6225212999998,,,,,,,,1072.6088325,1077.6059999,1077.6060078,1077.6225323999997,1089.6062936999997,1,active,42.3,1089.6064308000005,1091.2081282,45.500000000000085,1.581,1089.6393739000005,,,,,,,,,,,,,,,,,,,,,,,,,,,,,,,,,,,,,,sub-064,46.4,42.3,47.2,COM3,2025-09-09_13h48.13.120,2024_RDpaindiscrimination_maintask,2023.2.3,60.012554626508056,2025-09-09 13h48.41.325578 -0400,
1,0,1,0,6,0,6,0,,,,,,,,,,,,,1091.2227099000002,,,,,,,,1091.2087116000002,1096.2061978000002,1096.2062038000004,1096.2227420999998,1108.2065261999996,2,inactive,46.4,1108.2066670000004,1109.9920688000002,42.999999999999915,1.766,1108.2395771000001,,,,,,,,,,,,,,,,,,,,,,,,,,,,,,,,,,,,,,sub-064,46.4,42.3,47.2,COM3,2025-09-09_13h48.13.120,2024_RDpaindiscrimination_maintask,2023.2.3,60.012554626508056,2025-09-09 13h48.41.325578 -0400,
1,0,1,0,7,0,7,0,,,,,,,,,,,,,1110.0062576,,,,,,,,1109.9928515000001,1114.9897431,1114.9897508000004,1115.0062539,1126.9901027000005,3,active,42.3,1126.9902417000003,1128.2419974000004,20.500000000000036,1.231,1127.0231199999998,,,,,,,,,,,,,,,,,,,,,,,,,,,,,,,,,,,,,,sub-064,46.4,42.3,47.2,COM3,2025-09-09_13h48.13.120,2024_RDpaindiscrimination_maintask,2023.2.3,60.012554626508056,2025-09-09 13h48.41.325578 -0400,
1,0,1,0,8,0,8,0,,,,,,,,,,,,,1128.2564075,,,,,,,,1128.2427281,1133.2399324999997,1133.2399391999998,1133.2565003999998,1145.2403322999999,0,inactive,46.4,1145.2404747,1146.8417975000002,63.50000000000002,1.581,1145.2732320000005,,,,,,,,,,,,,,,,,,,,,,,,,,,,,,,,,,,,,,sub-064,46.4,42.3,47.2,COM3,2025-09-09_13h48.13.120,2024_RDpaindiscrimination_maintask,2023.2.3,60.012554626508056,2025-09-09 13h48.41.325578 -0400,
1,0,1,0,9,0,9,0,,,,,,,,,,,,,1146.8566545000003,,,,,,,,1146.8421943000003,1151.8401653,1151.8401721,1151.8567038,1163.8405014,1,active,42.3,1163.8406401000002,1166.1424484999998,34.00000000000016,2.282,1163.8735114,,,,,,,,,,,,,,,,,,,,,,,,,,,,,,,,,,,,,,sub-064,46.4,42.3,47.2,COM3,2025-09-09_13h48.13.120,2024_RDpaindiscrimination_maintask,2023.2.3,60.012554626508056,2025-09-09 13h48.41.325578 -0400,
1,0,1,0,10,0,10,0,,,,,,,,,,,,,1166.1567954000002,,,,,,,,1166.1432212999998,1171.1402915999997,1171.1402980000003,1171.1568011999998,1183.1406976999997,2,active,42.3,1183.1408559000001,1184.4419464000002,30.0,1.281,1183.1736579999997,,,,,,,,,,,,,,,,,,,,,,,,,,,,,,,,,,,,,,sub-064,46.4,42.3,47.2,COM3,2025-09-09_13h48.13.120,2024_RDpaindiscrimination_maintask,2023.2.3,60.012554626508056,2025-09-09 13h48.41.325578 -0400,
1,0,1,0,11,0,11,0,,,,,,,,,,,,,1184.4570577000004,,,,,,,,1184.4427246000005,1189.4404713000004,1189.4404777999998,1189.4569972999998,1201.4407990999998,3,inactive,46.4,1201.4409453999997,1204.0923048000004,66.49999999999984,2.632,1201.4738536000004,,,,,,,,,,,,,,,,,,,,,,,,,,,,,,,,,,,,,,sub-064,46.4,42.3,47.2,COM3,2025-09-09_13h48.13.120,2024_RDpaindiscrimination_maintask,2023.2.3,60.012554626508056,2025-09-09 13h48.41.325578 -0400,
1,0,1,0,12,0,12,0,,,,,,,,,,,,,1204.1072517000002,,,,,,,,1204.0930555000004,1209.0906717999997,1209.0906786000005,1209.1072875999998,1221.0910621000003,0,active,42.3,1221.0911993999998,1222.6425523999997,41.5000000000001,1.531,1221.1240777000003,,,,,,,,,,,,,,,,,,,,,,,,,,,,,,,,,,,,,,sub-064,46.4,42.3,47.2,COM3,2025-09-09_13h48.13.120,2024_RDpaindiscrimination_maintask,2023.2.3,60.012554626508056,2025-09-09 13h48.41.325578 -0400,
1,0,1,0,13,0,13,0,,,,,,,,,,,,,1222.6573699,,,,,,,,1222.6428058000001,1227.6410268999998,1227.6410330999997,1227.6575556999996,1239.6412474999997,1,inactive,46.4,1239.6413880999999,1241.3106936000004,78.9999999999999,1.649,1239.6742378999998,,,,,,,,,,,,,,,,,,,,,,,,,,,,,,,,,,,,,,sub-064,46.4,42.3,47.2,COM3,2025-09-09_13h48.13.120,2024_RDpaindiscrimination_maintask,2023.2.3,60.012554626508056,2025-09-09 13h48.41.325578 -0400,
1,0,1,0,14,0,14,0,,,,,,,,,,,,,1241.3242674000003,,,,,,,,1241.3114563,1246.3078974,1246.3079042,1246.3244095999999,1258.3080675,2,active,42.3,1258.3082052,1259.9272559,20.0,1.599,1258.3411041,,,,,,,,,,,,,,,,,,,,,,,,,,,,,,,,,,,,,,sub-064,46.4,42.3,47.2,COM3,2025-09-09_13h48.13.120,2024_RDpaindiscrimination_maintask,2023.2.3,60.012554626508056,2025-09-09 13h48.41.325578 -0400,
1,0,1,0,15,0,15,0,,,,,,,,,,,,,1259.9411695,,,,,,,,1259.9278212999998,1264.9246961999997,1264.9247022,1264.9411953,1276.9249915999999,3,inactive,46.4,1276.9251276000005,1278.1930708999998,75.99999999999997,1.247,1276.9579067000004,,,,,,,,,,,,,,,,,,,,,,,,,,,,,,,,,,,,,,sub-064,46.4,42.3,47.2,COM3,2025-09-09_13h48.13.120,2024_RDpaindiscrimination_maintask,2023.2.3,60.012554626508056,2025-09-09 13h48.41.325578 -0400,
1,0,1,0,,,,,0,0,0,0,0,0,0,0,,,,,1283.4580143000003,,,,,,1283.1919180000004,1283.4415520000002,,,,,,0,active,46.4,1300.4416355000003,1302.3440941999997,40.00000000000011,1.881,,1278.1936271000004,1278.2080705999997,1283.1915798,1283.4418096999998,1288.4415565,1288.4415637000002,1288.4580612,,1300.4416275000003,,,,,,,,,,,,,,,,,,,,,,,,,,,,,sub-064,46.4,42.3,47.2,COM3,2025-09-09_13h48.13.120,2024_RDpaindiscrimination_maintask,2023.2.3,60.012554626508056,2025-09-09 13h48.41.325578 -0400,
1,0,1,0,,,,,0,0,0,0,1,0,1,0,,,,,1302.3583509,,,,,,,,,,,,,1,inactive,46.4,1319.3421512000004,1321.2434302000001,60.500000000000036,1.881,,,,,1302.3448982999998,1307.3418110000002,1307.3418179999999,1307.3583509999999,1319.3751327999998,1319.3421440000002,,,,,,,,,,,,,,,,,,,,,,,,,,,,,sub-064,46.4,42.3,47.2,COM3,2025-09-09_13h48.13.120,2024_RDpaindiscrimination_maintask,2023.2.3,60.012554626508056,2025-09-09 13h48.41.325578 -0400,
1,0,1,0,,,,,0,0,0,0,,,,,0,0,0,0,1322.3583760000001,,,,,,,,,,,,,2,inactive,,,,,,,,,,,,,,,,1321.2439664000003,1322.3420765,1322.3423877000005,1327.3420779999997,1327.3420846,1327.3585519999997,1335.3419578000003,1335.3419578000003,1338.3086414,1338.3419951000005,1338.3419951000005,1338.3254779,4.41,4.39,441,438,8,1.2,0.75,pic-present,1,m,1.462126100000205,None,,,,,sub-064,46.4,42.3,47.2,COM3,2025-09-09_13h48.13.120,2024_RDpaindiscrimination_maintask,2023.2.3,60.012554626508056,2025-09-09 13h48.41.325578 -0400,
1,0,1,0,,,,,0,0,0,0,,,,,1,0,1,0,1338.3419951000005,,,,,,,,,,,,,3,inactive,,,,,,,,,,,,,,,,,,1338.3260123,1343.3255551000002,1343.3255617000004,1343.3420538,1351.3254452,1351.3254452,1354.2921647000003,1354.3255110999999,1354.3255110999999,1354.3090198,3.77,5.03,377,503,8,1.2,0.75,pic-present,1,m,0.5784475000000384,None,,,,,sub-064,46.4,42.3,47.2,COM3,2025-09-09_13h48.13.120,2024_RDpaindiscrimination_maintask,2023.2.3,60.012554626508056,2025-09-09 13h48.41.325578 -0400,
1,0,1,0,,,,,0,0,0,0,,,,,2,0,2,0,1354.3255110999999,,,,,,,,,,,,,0,active,,,,,,,,,,,,,,,,,,1354.3094952000001,1359.3090262000005,1359.3090333999999,1359.3255514000002,1367.3089485,1367.3089485,1370.2756294,1370.3089694999999,1370.3089694999999,1370.2924568999997,3.48,5.32,348,532,8,1.2,0.75,pic-absent,0,n,1.1381112000008216,None,,,,,sub-064,46.4,42.3,47.2,COM3,2025-09-09_13h48.13.120,2024_RDpaindiscrimination_maintask,2023.2.3,60.012554626508056,2025-09-09 13h48.41.325578 -0400,
1,0,1,0,,,,,0,0,0,0,,,,,3,0,3,0,1370.3089694999999,,,,,,,,,,,,,1,inactive,,,,,,,,,,,,,,,,,,1370.2929337000005,1375.2924977000002,1375.2925038000003,1375.3090637000005,1383.2923415000005,1383.2923415000005,1386.2590178,1386.2923459000003,1386.2923459000003,1386.2758492000003,4.25,4.55,425,455,8,1.2,0.75,pic-absent,1,m,1.271119799999724,None,,,,,sub-064,46.4,42.3,47.2,COM3,2025-09-09_13h48.13.120,2024_RDpaindiscrimination_maintask,2023.2.3,60.012554626508056,2025-09-09 13h48.41.325578 -0400,
1,0,1,0,,,,,1,0,1,0,0,0,0,0,,,,,1387.7590208000001,,,,,,1386.2763254000001,1387.7425750000002,,,,,,2,inactive,46.4,1404.7427047,1407.4450389000003,60.500000000000036,2.682,,,,,1387.7428594000003,1392.7426701000004,1392.7426770000002,1392.7590826000005,,1404.7426967000001,,,,,,,,,,,,,,,,,,,,,,,,,,,,,sub-064,46.4,42.3,47.2,COM3,2025-09-09_13h48.13.120,2024_RDpaindiscrimination_maintask,2023.2.3,60.012554626508056,2025-09-09 13h48.41.325578 -0400,
1,0,1,0,,,,,1,0,1,0,1,0,1,0,,,,,1407.4593553000004,,,,,,,,,,,,,3,active,46.4,1424.4431430000004,1427.0625502000003,52.5000000000001,2.6,,,,,1407.4457992999996,1412.4428009000003,1412.4428079999998,1412.4592768000002,1424.4761899000005,1424.4431359999999,,,,,,,,,,,,,,,,,,,,,,,,,,,,,sub-064,46.4,42.3,47.2,COM3,2025-09-09_13h48.13.120,2024_RDpaindiscrimination_maintask,2023.2.3,60.012554626508056,2025-09-09 13h48.41.325578 -0400,
1,0,1,0,,,,,1,0,1,0,,,,,0,0,0,0,1428.9261729,,,,,,,,,,,,,0,active,,,,,,,,,,,,,,,,1427.0630999000005,1428.9097252000001,1428.9100211000004,1433.9097640999998,1433.9097702999998,1433.926329,1441.9097655000005,1441.9097655000005,1444.8763486999997,1444.9096560999997,1444.9096560999997,1444.8931244000005,3.81,4.99,381,499,8,1.2,0.75,pic-present,0,n,1.558606300000065,None,,,,,sub-064,46.4,42.3,47.2,COM3,2025-09-09_13h48.13.120,2024_RDpaindiscrimination_maintask,2023.2.3,60.012554626508056,2025-09-09 13h48.41.325578 -0400,
1,0,1,0,,,,,1,0,1,0,,,,,1,0,1,0,1444.9096560999997,,,,,,,,,,,,,1,active,,,,,,,,,,,,,,,,,,1444.8936469999999,1449.8932860000004,1449.8932928000004,1449.9097104000002,1457.8932136000003,1457.8932136000003,1460.8598159000003,1460.8931562999996,1460.8931562999996,1460.8767564999998,4.29,4.51,429,451,8,1.2,0.75,pic-absent,1,m,0.36589179999918997,None,,,,,sub-064,46.4,42.3,47.2,COM3,2025-09-09_13h48.13.120,2024_RDpaindiscrimination_maintask,2023.2.3,60.012554626508056,2025-09-09 13h48.41.325578 -0400,
1,0,1,0,,,,,1,0,1,0,,,,,2,0,2,0,1460.8931562999996,,,,,,,,,,,,,2,inactive,,,,,,,,,,,,,,,,,,1460.8772374,1465.8767301999997,1465.8767376000005,1465.8932020000002,1473.8766225,1473.8766225,1476.8434011999998,1476.8766928000005,1476.8766928000005,1476.8601421000003,3.52,5.28,352,528,8,1.2,0.75,pic-absent,0,n,1.6026805999999851,None,,,,,sub-064,46.4,42.3,47.2,COM3,2025-09-09_13h48.13.120,2024_RDpaindiscrimination_maintask,2023.2.3,60.012554626508056,2025-09-09 13h48.41.325578 -0400,
1,0,1,0,,,,,1,0,1,0,,,,,3,0,3,0,1476.8766928000005,,,,,,,,,,,,,3,active,,,,,,,,,,,,,,,,,,1476.8606102000003,1481.8602056999998,1481.8602140000003,1481.8767710000002,1489.8601232,1489.8601232,1492.8268209999997,1492.8601718999998,1492.8601718999998,1492.8436381000001,4.11,4.69,411,469,8,1.2,0.75,pic-present,1,m,0.4109838000003947,None,,,,,sub-064,46.4,42.3,47.2,COM3,2025-09-09_13h48.13.120,2024_RDpaindiscrimination_maintask,2023.2.3,60.012554626508056,2025-09-09 13h48.41.325578 -0400,
1,0,1,0,,,,,2,0,2,0,0,0,0,0,,,,,1494.1101829,,,,,,1492.8441332000002,1494.0937709999998,,,,,,0,active,46.4,1511.0940748000003,1513.7789091000004,35.000000000000156,2.665,,,,,1494.0940818,1499.0937374000005,1499.0937443000003,1499.1102511,1511.1270775000003,1511.0940663000001,,,,,,,,,,,,,,,,,,,,,,,,,,,,,sub-064,46.4,42.3,47.2,COM3,2025-09-09_13h48.13.120,2024_RDpaindiscrimination_maintask,2023.2.3,60.012554626508056,2025-09-09 13h48.41.325578 -0400,
1,0,1,0,,,,,2,0,2,0,1,0,1,0,,,,,1513.7937597,,,,,,,,,,,,,1,inactive,46.4,1530.7775892999998,1532.5460739,51.50000000000003,1.748,,,,,1513.7796719999997,1518.7773508999999,1518.7773585000004,1518.7938782,1530.8106307999997,1530.7775812,,,,,,,,,,,,,,,,,,,,,,,,,,,,,sub-064,46.4,42.3,47.2,COM3,2025-09-09_13h48.13.120,2024_RDpaindiscrimination_maintask,2023.2.3,60.012554626508056,2025-09-09 13h48.41.325578 -0400,
1,0,1,0,,,,,2,0,2,0,,,,,0,0,0,0,1534.0106186000003,,,,,,,,,,,,,2,active,,,,,,,,,,,,,,,,1532.5465959000003,1533.994213,1533.9945307999997,1538.9941587000003,1538.9941653000005,1539.0106894,1546.9941863000004,1546.9941863000004,1549.9608657999997,1549.9942047000004,1549.9942047000004,1549.9776951000003,4.71,4.09,471,409,8,1.2,0.75,pic-absent,0,n,0.690324099999998,None,,,,,sub-064,46.4,42.3,47.2,COM3,2025-09-09_13h48.13.120,2024_RDpaindiscrimination_maintask,2023.2.3,60.012554626508056,2025-09-09 13h48.41.325578 -0400,
1,0,1,0,,,,,2,0,2,0,,,,,1,0,1,0,1549.9942047000004,,,,,,,,,,,,,3,inactive,,,,,,,,,,,,,,,,,,1549.9782273,1554.9777053999996,1554.9777117000003,1554.9941710000003,1562.9775829,1562.9775829,1565.9442811999998,1565.9776233000002,1565.9776233000002,1565.9611043000004,4.51,4.29,451,429,8,1.2,0.75,pic-absent,1,m,0.36150439999983064,None,,,,,sub-064,46.4,42.3,47.2,COM3,2025-09-09_13h48.13.120,2024_RDpaindiscrimination_maintask,2023.2.3,60.012554626508056,2025-09-09 13h48.41.325578 -0400,
1,0,1,0,,,,,2,0,2,0,,,,,2,0,2,0,1565.9776233000002,,,,,,,,,,,,,0,active,,,,,,,,,,,,,,,,,,1565.9615733,1570.9611701000003,1570.9611768000004,1570.9777118000002,1578.9610792000003,1578.9610792000003,1581.9277223,1581.9611600999997,1581.9611600999997,1581.9446415000002,3.25,5.55,325,555,8,1.2,0.75,pic-present,0,n,0.6539389999998093,None,,,,,sub-064,46.4,42.3,47.2,COM3,2025-09-09_13h48.13.120,2024_RDpaindiscrimination_maintask,2023.2.3,60.012554626508056,2025-09-09 13h48.41.325578 -0400,
1,0,1,0,,,,,2,0,2,0,,,,,3,0,3,0,1581.9611600999997,,,,,,,,,,,,,1,active,,,,,,,,,,,,,,,,,,1581.9451093999996,1586.9446024999997,1586.9446092999997,1586.9611376000003,1594.9446064000003,1594.9446064000003,1597.9112981999997,1597.9446165,1597.9446165,1597.9281621999999,3.38,5.42,338,542,8,1.2,0.75,pic-absent,0,n,0.36312570000063715,None,,,,,sub-064,46.4,42.3,47.2,COM3,2025-09-09_13h48.13.120,2024_RDpaindiscrimination_maintask,2023.2.3,60.012554626508056,2025-09-09 13h48.41.325578 -0400,
1,0,1,0,,,,,3,0,3,0,0,0,0,0,,,,,1599.4946084000003,,,,,,1597.9286319000003,1599.4782569,,,,,,2,inactive,46.4,1616.4785030000003,1618.1300013,64.99999999999991,1.631,,,,,1599.4785567,1604.4781377999998,1604.4781448000003,1604.4946554999997,1616.5115404999997,1616.4784953999997,,,,,,,,,,,,,,,,,,,,,,,,,,,,,sub-064,46.4,42.3,47.2,COM3,2025-09-09_13h48.13.120,2024_RDpaindiscrimination_maintask,2023.2.3,60.012554626508056,2025-09-09 13h48.41.325578 -0400,
1,0,1,0,,,,,3,0,3,0,1,0,1,0,,,,,1618.1448136,,,,,,,,,,,,,3,active,46.4,1635.1286584,1637.0634544000004,68.50000000000004,1.914,,,,,1618.1307761999997,1623.1283495999996,1623.1283568999997,1623.1449226000004,1635.1617060999997,1635.1286513000005,,,,,,,,,,,,,,,,,,,,,,,,,,,,,sub-064,46.4,42.3,47.2,COM3,2025-09-09_13h48.13.120,2024_RDpaindiscrimination_maintask,2023.2.3,60.012554626508056,2025-09-09 13h48.41.325578 -0400,
1,0,1,0,,,,,3,0,3,0,,,,,0,0,0,0,1638.4450272000004,,,,,,,,,,,,,0,inactive,,,,,,,,,,,,,,,,1637.0640074000003,1638.4287372999997,1638.4290615999998,1643.4285521000002,1643.4285584999998,1643.4450980000001,1651.4285779000002,1651.4285779000002,1654.3952003000004,1654.4285409000004,1654.4285409000004,1654.4120788,3.58,5.22,358,522,8,1.2,0.75,pic-absent,0,n,1.030263699999523,None,,,,,sub-064,46.4,42.3,47.2,COM3,2025-09-09_13h48.13.120,2024_RDpaindiscrimination_maintask,2023.2.3,60.012554626508056,2025-09-09 13h48.41.325578 -0400,
1,0,1,0,,,,,3,0,3,0,,,,,1,0,1,0,1654.4285409000004,,,,,,,,,,,,,1,active,,,,,,,,,,,,,,,,,,1654.4126029,1659.4120642999997,1659.4120708,1659.4285956000003,1667.4120763,1667.4120763,1670.3787500999997,1670.4120449000002,1670.4120449000002,1670.3955289000005,3.25,5.55,325,555,8,1.2,0.75,pic-present,0,n,0.6747460999995383,None,,,,,sub-064,46.4,42.3,47.2,COM3,2025-09-09_13h48.13.120,2024_RDpaindiscrimination_maintask,2023.2.3,60.012554626508056,2025-09-09 13h48.41.325578 -0400,
1,0,1,0,,,,,3,0,3,0,,,,,2,0,2,0,1670.4120449000002,,,,,,,,,,,,,2,inactive,,,,,,,,,,,,,,,,,,1670.3959925999998,1675.3955619999997,1675.3955685,1675.4121425000003,1683.3955788000003,1683.3955788000003,1686.3622049000005,1686.3955353000001,1686.3955353000001,1686.3790638,4.68,4.12,468,412,8,1.2,0.75,pic-present,1,m,0.33269250000012107,None,,,,,sub-064,46.4,42.3,47.2,COM3,2025-09-09_13h48.13.120,2024_RDpaindiscrimination_maintask,2023.2.3,60.012554626508056,2025-09-09 13h48.41.325578 -0400,
1,0,1,0,,,,,3,0,3,0,,,,,3,0,3,0,1686.3955353000001,,,,,,,,,,,,,3,inactive,,,,,,,,,,,,,,,,,,1686.3795056999998,1691.3791592999996,1691.3791669000002,1691.3956264999997,1699.3790740000004,1699.3790740000004,1702.3457121000001,1702.3790411,1702.3790411,1702.3625113999997,3.43,5.37,343,537,8,1.2,0.75,pic-present,1,m,0.39207859999987704,None,,,,,sub-064,46.4,42.3,47.2,COM3,2025-09-09_13h48.13.120,2024_RDpaindiscrimination_maintask,2023.2.3,60.012554626508056,2025-09-09 13h48.41.325578 -0400,
,,,,,,,,,,,,,,,,,,,,,,,,,,,,,,,,,,,,,,,,,,,,,,,,,,,,,,,,,,,,,,,,,,,,,,,,,,1702.3629266999997,1703.8959486000003,1703.8959665000002,1713.8959231,,,,,,,,,,,
