series.thisRepN,series.thisTrialN,series.thisN,series.thisIndex,Ramp.thisRepN,Ramp.thisTrialN,Ramp.thisN,Ramp.thisIndex,trials.thisRepN,trials.thisTrialN,trials.thisN,trials.thisIndex,thisRow.t,notes,Welcome.started,Welcome.stopped,instructions2.started,instructions2.stopped,instructions_start_ramp.started,instructions_start_ramp.stopped,confirm_continue.started,key_resp_8.started,confirm_continue.stopped,intensity,wait1_dur,wait.started,wait.stopped,therm_trig.started,therm_trig.stopped,rating_scale.started,rating_scale.stopped,rating,ratingScale.response,ratingScale.rt,press_when_ready.started,text_2.started,key_resp_3.started,press_when_ready.stopped,key_resp_3.keys,key_resp_3.rt,key_resp_3.duration,bloc_terminé.started,bloc_terminé.stopped,compile_ramps.started,compile_ramps.stopped,deuxieme_start.started,deuxieme_start.stopped,press_when_ready2.started,text_9.started,press_when_ready2.stopped,wait_2.started,wait_2.stopped,therm_trig2.started,therm_trig2.stopped,rating_scale2.started,rating_scale2.stopped,keyResp_2.keys,therm_value,ratingScale_2.response,ratingScale_2.rt,thank_you_output_code.started,thank_you_output_code.stopped,participant,com_thermode,nramps,date,expName,psychopyVersion,frameRate,expStart,
0,0,0,0,0,0,0,0,,,,,29.79180870001437,,0.008193499990738928,27.258685000007972,27.258692500006873,27.492002099985257,27.49234840000281,29.77535640000133,29.77567750000162,29.79180870001437,33.9254047999857,41,2.4,33.92557769996347,36.32535729999654,36.32536449999316,48.32575739995809,48.32576470001368,55.814261899970006,13.00000000000017,13.00000000000017,7.463,55.81475419999333,55.825511800008826,55.825511800008826,70.04240079998272,y,14.204215500038117,None,,,,,,,,,,,,,,,,,,,,,,sub-056,COM3,3,2025-06-09_13h12.26.921,2024_RDpaindiscrimination_calibration,2023.2.3,60.0143554453196,2025-06-09 13h34.44.689551 -0400,
0,0,0,0,1,0,1,0,,,,,70.05886419996386,,,,,,,,70.04269480000949,70.05886419996386,71.07574800000293,42,2.1,71.07585939997807,73.17570199997863,73.17570939997677,85.1760815999587,85.17608850001125,89.24877429998014,31.50000000000003,31.50000000000003,4.052,89.24925160000566,89.25923739996506,89.25923739996506,91.37592550000409,y,2.1094241999671794,None,,,,,,,,,,,,,,,,,,,,,,sub-056,COM3,3,2025-06-09_13h12.26.921,2024_RDpaindiscrimination_calibration,2023.2.3,60.0143554453196,2025-06-09 13h34.44.689551 -0400,
0,0,0,0,2,0,2,0,,,,,91.39237859996501,,,,,,,,91.37613569997484,91.39237859996501,91.67602939996868,43,2.3,91.6761436999659,93.97591949999332,93.97592669998994,105.9762690999778,105.97627579997061,111.98247859999537,42.500000000000135,42.500000000000135,5.985,111.98295490001328,111.9927201999817,111.9927201999817,113.97617859998718,y,1.9725847000372596,None,,,,,,,,,,,,,,,,,,,,,,sub-056,COM3,3,2025-06-09_13h12.26.921,2024_RDpaindiscrimination_calibration,2023.2.3,60.0143554453196,2025-06-09 13h34.44.689551 -0400,
0,0,0,0,3,0,3,0,,,,,113.9925809999695,,,,,,,,113.97638780000852,113.9925809999695,114.409496999986,44,2.0,114.40961579995928,116.40940339997178,116.40941079996992,128.40949250000995,128.4094977999921,133.88189630000852,56.99999999999997,56.99999999999997,5.451,133.8823586999788,133.8929124000133,133.8929124000133,136.02647459995933,y,2.133132100047078,None,,,,,,,,,,,,,,,,,,,,,,sub-056,COM3,3,2025-06-09_13h12.26.921,2024_RDpaindiscrimination_calibration,2023.2.3,60.0143554453196,2025-06-09 13h34.44.689551 -0400,
0,0,0,0,4,0,4,0,,,,,136.0428774000029,,,,,,,,136.0267232999904,136.0428774000029,136.35979469999438,45,2.4,136.35991579998517,138.75961639999878,138.7596240999992,150.75969129998703,150.7596967999707,156.5468550999649,56.99999999999994,56.99999999999994,5.766,156.54729069996392,156.5597375999787,156.5597375999787,158.54331069998443,y,1.9817952999728732,None,,,,,,,,,,,,,,,,,,,,,,sub-056,COM3,3,2025-06-09_13h12.26.921,2024_RDpaindiscrimination_calibration,2023.2.3,60.0143554453196,2025-06-09 13h34.44.689551 -0400,
0,0,0,0,5,0,5,0,,,,,158.55975959997158,,,,,,,,158.54354869999224,158.55975959997158,158.87673459999496,46,2.5,158.87685419997433,161.37658250000095,161.37658949999604,173.37692549999338,173.3769323999877,176.3987458999618,74.49999999999999,74.49999999999999,3.0,176.3992581999628,176.4099736000062,176.4099736000062,178.62685800000327,y,2.2116896000225097,None,,,,,,,,,,,,,,,,,,,,,,sub-056,COM3,3,2025-06-09_13h12.26.921,2024_RDpaindiscrimination_calibration,2023.2.3,60.0143554453196,2025-06-09 13h34.44.689551 -0400,
0,0,0,0,6,0,6,0,,,,,178.6432833999861,,,,,,,,178.62706369999796,178.6432833999861,178.97684700001264,47,2.5,178.97695199999725,181.47678540000925,181.47679409995908,193.47709050000412,193.47709659999236,198.59823050000705,90.49999999999994,90.49999999999994,5.1,198.59875890001422,198.61014359997353,198.61014359997353,200.87708489998477,n,2.255313000001479,None,,,,,,,,,,,,,,,,,,,,,,sub-056,COM3,3,2025-06-09_13h12.26.921,2024_RDpaindiscrimination_calibration,2023.2.3,60.0143554453196,2025-06-09 13h34.44.689551 -0400,
0,0,0,0,,,,,,,,,,,,,,,,,,,,,,,,,,,,,,,,,,,,,,200.87725819996558,204.87700729997596,,,,,,,,,,,,,,,,,,,,sub-056,COM3,3,2025-06-09_13h12.26.921,2024_RDpaindiscrimination_calibration,2023.2.3,60.0143554453196,2025-06-09 13h34.44.689551 -0400,
1,0,1,0,0,0,0,0,,,,,219.5937077999697,,,,,,204.87712550000288,219.57725089997984,219.57757249998394,219.5937077999697,220.0772667999845,41,2.1,220.07742729998427,222.17706239997642,222.17706879996695,234.17714300000807,234.17714839999098,240.18281169998227,20.000000000000178,20.000000000000178,5.985,240.18335579999257,240.1939083999605,240.1939083999605,242.0441955999704,y,1.8403251000563614,None,,,,,,,,,,,,,,,,,,,,,,sub-056,COM3,3,2025-06-09_13h12.26.921,2024_RDpaindiscrimination_calibration,2023.2.3,60.0143554453196,2025-06-09 13h34.44.689551 -0400,
1,0,1,0,1,0,1,0,,,,,242.06060899997829,,,,,,,,242.04449900001055,242.06060899997829,242.31081609998364,42,2.5,242.31091910001123,244.8107183999964,244.8107245999854,256.8107921999763,256.81079739995766,261.2998336000019,31.499999999999957,31.499999999999957,4.468,261.30029959999956,261.310860699974,261.310860699974,263.3610786999925,y,2.0345358999911696,None,,,,,,,,,,,,,,,,,,,,,,sub-056,COM3,3,2025-06-09_13h12.26.921,2024_RDpaindiscrimination_calibration,2023.2.3,60.0143554453196,2025-06-09 13h34.44.689551 -0400,
1,0,1,0,2,0,2,0,,,,,263.37750050000614,,,,,,,,263.36128630000167,263.37750050000614,263.6944131999626,43,2.5,263.69453719997546,266.19420679996256,266.1942138999584,278.19432189996587,278.1943278000108,283.71511549997376,35.000000000000156,35.000000000000156,5.499,283.7155478000059,283.72772119997535,283.72772119997535,286.17808479996165,y,2.4463423000415787,None,,,,,,,,,,,,,,,,,,,,,,sub-056,COM3,3,2025-06-09_13h12.26.921,2024_RDpaindiscrimination_calibration,2023.2.3,60.0143554453196,2025-06-09 13h34.44.689551 -0400,
1,0,1,0,3,0,3,0,,,,,286.1944236999843,,,,,,,,286.17830649996176,286.1944236999843,286.6279657999985,44,2.0,286.6280903000152,288.6279371000128,288.6279470999725,300.6282596999663,300.62826649995986,305.8327678999631,52.0000000000001,52.0000000000001,5.184,305.8331957999617,305.84462559997337,305.84462559997337,307.69478690001415,y,1.8359339999733493,None,,,,,,,,,,,,,,,,,,,,,,sub-056,COM3,3,2025-06-09_13h12.26.921,2024_RDpaindiscrimination_calibration,2023.2.3,60.0143554453196,2025-06-09 13h34.44.689551 -0400,
1,0,1,0,4,0,4,0,,,,,307.7111925999634,,,,,,,,307.69499180000275,307.7111925999634,308.0114040999906,45,2.4,308.011519599997,310.4114748999709,310.4114816999645,322.41185099998256,322.4118572999723,328.9166603999911,68.49999999999983,68.49999999999983,6.485,328.91716579999775,328.9282463999698,328.9282463999698,330.9784571999917,y,2.0336874999920838,None,,,,,,,,,,,,,,,,,,,,,,sub-056,COM3,3,2025-06-09_13h12.26.921,2024_RDpaindiscrimination_calibration,2023.2.3,60.0143554453196,2025-06-09 13h34.44.689551 -0400,
1,0,1,0,5,0,5,0,,,,,330.9949066999834,,,,,,,,330.97870380000677,330.9949066999834,331.27845689997775,46,2.4,331.2785751000047,333.67839859996457,333.67840619996423,345.6784295999678,345.67843540001195,351.9675955999992,75.99999999999987,75.99999999999987,6.268,351.96806059998926,351.97853829996893,351.97853829996893,354.3286444999976,y,2.3465199999627657,None,,,,,,,,,,,,,,,,,,,,,,sub-056,COM3,3,2025-06-09_13h12.26.921,2024_RDpaindiscrimination_calibration,2023.2.3,60.0143554453196,2025-06-09 13h34.44.689551 -0400,
1,0,1,0,6,0,6,0,,,,,354.3450929999817,,,,,,,,354.3288685999578,354.3450929999817,354.645286199986,47,2.2,354.6454061999684,356.8452343000099,356.8452423000126,368.84535269998014,368.8453581999638,372.5327758999774,89.5000000000001,89.5000000000001,3.667,372.533265999984,372.545285900007,372.545285900007,374.5623506999691,n,2.0088668999960646,None,,,,,,,,,,,,,,,,,,,,,,sub-056,COM3,3,2025-06-09_13h12.26.921,2024_RDpaindiscrimination_calibration,2023.2.3,60.0143554453196,2025-06-09 13h34.44.689551 -0400,
1,0,1,0,,,,,,,,,,,,,,,,,,,,,,,,,,,,,,,,,,,,,,374.5625364999869,378.56214210001053,,,,,,,,,,,,,,,,,,,,sub-056,COM3,3,2025-06-09_13h12.26.921,2024_RDpaindiscrimination_calibration,2023.2.3,60.0143554453196,2025-06-09 13h34.44.689551 -0400,
2,0,2,0,0,0,0,0,,,,,381.0620386999799,,,,,,378.56225640000775,381.0455823999946,381.0459233999718,381.0620386999799,381.51223839999875,41,2.2,381.5124115999788,383.71220539999194,383.71221209998475,395.71233969996683,395.7123450000072,401.56763090001186,20.00000000000007,20.00000000000007,5.833,401.5682199000148,401.57904330000747,401.57904330000747,403.1124628999969,y,1.522073000029195,None,,,,,,,,,,,,,,,,,,,,,,sub-056,COM3,3,2025-06-09_13h12.26.921,2024_RDpaindiscrimination_calibration,2023.2.3,60.0143554453196,2025-06-09 13h34.44.689551 -0400,
2,0,2,0,1,0,1,0,,,,,403.1289221000043,,,,,,,,403.11277249996783,403.1289221000043,403.4958587999572,42,2.0,403.4959722000058,405.4957826999598,405.4957899999572,417.4959231999819,417.49592849996407,421.61759999999776,29.00000000000004,29.00000000000004,4.101,421.61802900000475,421.6292827000143,421.6292827000143,423.3793387999758,y,1.7353583000367507,None,,,,,,,,,,,,,,,,,,,,,,sub-056,COM3,3,2025-06-09_13h12.26.921,2024_RDpaindiscrimination_calibration,2023.2.3,60.0143554453196,2025-06-09 13h34.44.689551 -0400,
2,0,2,0,2,0,2,0,,,,,423.395773599972,,,,,,,,423.37954980001086,423.395773599972,423.6460263999761,43,2.3,423.6461477999692,425.94593119999627,425.9459382999921,437.94601329998113,437.9460187999648,443.20000259997323,35.000000000000085,35.000000000000085,5.233,443.2004297999665,443.2128466999857,443.2128466999857,444.7962814999628,y,1.5763225000118837,None,,,,,,,,,,,,,,,,,,,,,,sub-056,COM3,3,2025-06-09_13h12.26.921,2024_RDpaindiscrimination_calibration,2023.2.3,60.0143554453196,2025-06-09 13h34.44.689551 -0400,
2,0,2,0,3,0,3,0,,,,,444.8126925000106,,,,,,,,444.7964881999651,444.8126925000106,445.0462891999632,44,2.3,445.04640859999927,447.3462171999854,447.34622429998126,459.34642919996986,459.34644789999584,465.2509051999659,49.4999999999999,49.4999999999999,5.883,465.25134269997943,465.26295529998606,465.26295529998606,467.0299707999802,y,1.7549505999777466,None,,,,,,,,,,,,,,,,,,,,,,sub-056,COM3,3,2025-06-09_13h12.26.921,2024_RDpaindiscrimination_calibration,2023.2.3,60.0143554453196,2025-06-09 13h34.44.689551 -0400,
2,0,2,0,4,0,4,0,,,,,467.0462800000096,,,,,,,,467.0301930999849,467.0462800000096,467.3298273999826,45,2.1,467.3299401999684,469.42983589996584,469.42984230001457,481.4302544000093,481.4302607999998,486.36775089998264,57.999999999999865,57.999999999999865,4.916,486.36818270001095,486.37985570001183,486.37985570001183,488.6968041000073,y,2.3056728000519797,None,,,,,,,,,,,,,,,,,,,,,,sub-056,COM3,3,2025-06-09_13h12.26.921,2024_RDpaindiscrimination_calibration,2023.2.3,60.0143554453196,2025-06-09 13h34.44.689551 -0400,
2,0,2,0,5,0,5,0,,,,,488.7132225999958,,,,,,,,488.6970378999831,488.7132225999958,489.03011039999546,46,2.3,489.0302279999596,491.3300633999752,491.3300703999703,503.33008469996275,503.33009040000616,509.0846402999596,65.99999999999987,65.99999999999987,5.733,509.08508359995903,509.09688049997203,509.09688049997203,511.66370249999454,y,2.555755500041414,None,,,,,,,,,,,,,,,,,,,,,,sub-056,COM3,3,2025-06-09_13h12.26.921,2024_RDpaindiscrimination_calibration,2023.2.3,60.0143554453196,2025-06-09 13h34.44.689551 -0400,
2,0,2,0,6,0,6,0,,,,,511.68014660000335,,,,,,,,511.6639323999989,511.68014660000335,511.96371819998603,47,2.2,511.9638393999776,514.1636613999726,514.1636685999692,526.1636891000089,526.1636944999918,532.0192446999718,91.49999999999994,91.49999999999994,5.835,532.0196851000073,532.0304972999729,532.0304972999729,534.0307900999906,n,1.9949048000271432,None,,,,,,,,,,,,,,,,,,,,,,sub-056,COM3,3,2025-06-09_13h12.26.921,2024_RDpaindiscrimination_calibration,2023.2.3,60.0143554453196,2025-06-09 13h34.44.689551 -0400,
2,0,2,0,,,,,,,,,,,,,,,,,,,,,,,,,,,,,,,,,,,,,,534.0309590999968,538.030581399973,,,,,,,,,,,,,,,,,,,,sub-056,COM3,3,2025-06-09_13h12.26.921,2024_RDpaindiscrimination_calibration,2023.2.3,60.0143554453196,2025-06-09 13h34.44.689551 -0400,
,,,,,,,,0,0,0,0,592.0977764999843,,,,,,,,,,,,2.5,,,,,,,61.49999999999986,,,,,,,,,,,,538.0306072999956,543.0306695000036,543.030675499991,592.08133429999,592.0817048999597,592.0977764999843,592.6147104999982,592.6147178999963,595.1146077999729,595.1146156999748,607.1146540999762,607.1146600999637,611.5033698999905,None,46.5,61.49999999999986,4.369,,,sub-056,COM3,3,2025-06-09_13h12.26.921,2024_RDpaindiscrimination_calibration,2023.2.3,60.0143554453196,2025-06-09 13h34.44.689551 -0400,
,,,,,,,,1,0,1,0,611.5313188,,,,,,,,,,,,2.1,,,,,,,36.00000000000002,,,,,,,,,,,,,,,,611.504644599976,611.5313188,612.4649117999943,612.4649191999924,614.5648641000153,614.5648716000142,626.5649186999653,626.5649242000072,631.8196191999596,None,46.1,36.00000000000002,5.234,,,sub-056,COM3,3,2025-06-09_13h12.26.921,2024_RDpaindiscrimination_calibration,2023.2.3,60.0143554453196,2025-06-09 13h34.44.689551 -0400,
,,,,,,,,2,0,2,0,631.8316737000132,,,,,,,,,,,,2.5,,,,,,,48.99999999999998,,,,,,,,,,,,,,,,631.8206185000017,631.8316737000132,633.0652190999826,633.0652268999838,635.5651073000045,635.5651150000049,647.5655103999889,647.5655184999923,653.0039912000066,None,43.8,48.99999999999998,5.417,,,sub-056,COM3,3,2025-06-09_13h12.26.921,2024_RDpaindiscrimination_calibration,2023.2.3,60.0143554453196,2025-06-09 13h34.44.689551 -0400,
,,,,,,,,3,0,3,0,653.0152457999648,,,,,,,,,,,,2.1,,,,,,,80.0,,,,,,,,,,,,,,,,653.004947999958,653.0152457999648,654.3489018999971,654.348911100009,656.4486941999639,656.4487017999636,668.4487214999972,668.4487267999793,671.4690691999858,None,47.0,80.0,3.0,,,sub-056,COM3,3,2025-06-09_13h12.26.921,2024_RDpaindiscrimination_calibration,2023.2.3,60.0143554453196,2025-06-09 13h34.44.689551 -0400,
,,,,,,,,4,0,4,0,671.4822148999665,,,,,,,,,,,,2.3,,,,,,,21.000000000000007,,,,,,,,,,,,,,,,671.4700292999623,671.4822148999665,673.0822986999992,673.0823063999997,675.3823099999572,675.3823177999584,687.3826927999617,687.382699800015,690.6701095000026,None,45.6,21.000000000000007,3.267,,,sub-056,COM3,3,2025-06-09_13h12.26.921,2024_RDpaindiscrimination_calibration,2023.2.3,60.0143554453196,2025-06-09 13h34.44.689551 -0400,
,,,,,,,,5,0,5,0,690.6823256000062,,,,,,,,,,,,2.3,,,,,,,40.50000000000007,,,,,,,,,,,,,,,,690.6710892000119,690.6823256000062,692.5992099000141,692.5992175000138,694.899108499987,694.8991162999882,706.899241600011,706.8992476999993,710.0202477999846,None,44.7,40.50000000000007,3.1,,,sub-056,COM3,3,2025-06-09_13h12.26.921,2024_RDpaindiscrimination_calibration,2023.2.3,60.0143554453196,2025-06-09 13h34.44.689551 -0400,
,,,,,,,,6,0,6,0,710.0326662999578,,,,,,,,,,,,2.2,,,,,,,27.500000000000078,,,,,,,,,,,,,,,,710.0211991000106,710.0326662999578,711.1328222999582,711.1328294000123,713.3326569999917,713.3326640999876,725.3327400999842,725.332746399974,727.9386514999787,None,43.3,27.500000000000078,2.586,,,sub-056,COM3,3,2025-06-09_13h12.26.921,2024_RDpaindiscrimination_calibration,2023.2.3,60.0143554453196,2025-06-09 13h34.44.689551 -0400,
,,,,,,,,7,0,7,0,727.9661230999627,,,,,,,,,,,,2.3,,,,,,,13.000000000000064,,,,,,,,,,,,,,,,727.9396540999878,727.9661230999627,729.2830615999992,729.283070400008,731.5829715,731.5829783999943,743.5829946000013,743.5830001999857,747.438220400014,None,42.8,13.000000000000064,3.835,,,sub-056,COM3,3,2025-06-09_13h12.26.921,2024_RDpaindiscrimination_calibration,2023.2.3,60.0143554453196,2025-06-09 13h34.44.689551 -0400,
,,,,,,,,8,0,8,0,747.4663570999983,,,,,,,,,,,,2.3,,,,,,,36.50000000000012,,,,,,,,,,,,,,,,747.4392337999889,747.4663570999983,748.866593899962,748.8666020999663,751.1665330000105,751.1665414999588,763.1665700000012,763.1665757999872,766.5043362000142,None,41.9,36.50000000000012,3.318,,,sub-056,COM3,3,2025-06-09_13h12.26.921,2024_RDpaindiscrimination_calibration,2023.2.3,60.0143554453196,2025-06-09 13h34.44.689551 -0400,
,,,,,,,,9,0,9,0,766.5165655000019,,,,,,,,,,,,2.1,,,,,,,63.499999999999844,,,,,,,,,,,,,,,,766.5053320999723,766.5165655000019,767.850247800001,767.8502551999991,769.9500923999585,769.9501005999628,781.9503735000035,781.9503805999993,786.288018399966,None,45.2,63.499999999999844,4.317,,,sub-056,COM3,3,2025-06-09_13h12.26.921,2024_RDpaindiscrimination_calibration,2023.2.3,60.0143554453196,2025-06-09 13h34.44.689551 -0400,
,,,,,,,,10,0,10,0,786.3168238999788,,,,,,,,,,,,2.3,,,,,,,16.499999999999996,,,,,,,,,,,,,,,,786.2890307999915,786.3168238999788,787.550313499989,787.5503197999788,789.8502630000003,789.8502704999992,801.8506430999842,801.8506498999777,804.4039862999925,None,41.0,16.499999999999996,2.533,,,sub-056,COM3,3,2025-06-09_13h12.26.921,2024_RDpaindiscrimination_calibration,2023.2.3,60.0143554453196,2025-06-09 13h34.44.689551 -0400,
,,,,,,,,11,0,11,0,804.4171705999761,,,,,,,,,,,,2.4,,,,,,,29.499999999999975,,,,,,,,,,,,,,,,804.4050531999674,804.4171705999761,805.9006288999808,805.9006367999827,808.3005399999674,808.3005477999686,820.3009308999754,820.300938099972,824.8209680999862,None,41.5,29.499999999999975,4.499,,,sub-056,COM3,3,2025-06-09_13h12.26.921,2024_RDpaindiscrimination_calibration,2023.2.3,60.0143554453196,2025-06-09 13h34.44.689551 -0400,
,,,,,,,,12,0,12,0,824.8339133000118,,,,,,,,,,,,2.0,,,,,,,63.499999999999915,,,,,,,,,,,,,,,,824.8219225999783,824.8339133000118,826.1675436999649,826.1675539999851,828.1674212999642,828.1674287999631,840.1674576000078,840.1674637999968,843.8715878999792,None,42.4,63.499999999999915,3.683,,,sub-056,COM3,3,2025-06-09_13h12.26.921,2024_RDpaindiscrimination_calibration,2023.2.3,60.0143554453196,2025-06-09 13h34.44.689551 -0400,
,,,,,,,,13,0,13,0,843.8841389999725,,,,,,,,,,,,2.4,,,,,,,64.49999999999987,,,,,,,,,,,,,,,,843.8725713999593,843.8841389999725,845.3009210999589,845.3009298999677,847.7008670999785,847.7008750999812,859.7008963999688,859.7009023000137,862.8233916999889,None,44.2,64.49999999999987,3.101,,,sub-056,COM3,3,2025-06-09_13h12.26.921,2024_RDpaindiscrimination_calibration,2023.2.3,60.0143554453196,2025-06-09 13h34.44.689551 -0400,
,,,,,,,,,,,,,,,,,,,,,,,,,,,,,,,,,,,,,,,,,,,,,,,,,,,,,,,,,,,,862.8241835999652,867.8343583999667,,,,,,,,,
