trials.thisRepN,trials.thisTrialN,trials.thisN,trials.thisIndex,loop_test.thisRepN,loop_test.thisTrialN,loop_test.thisN,loop_test.thisIndex,loop_eval_discri.thisRepN,loop_eval_discri.thisTrialN,loop_eval_discri.thisN,loop_eval_discri.thisIndex,loop_eval.thisRepN,loop_eval.thisTrialN,loop_eval.thisN,loop_eval.thisIndex,loop_discri.thisRepN,loop_discri.thisTrialN,loop_discri.thisN,loop_discri.thisIndex,thisRow.t,notes,Set_up.started,Set_up.stopped,electrode_check.started,electrode_check.stopped,instructions_eval.started,instructions_eval.stopped,pause_5_test.started,pause_5_test.stopped,Phase_Test.started,thermode_locali.started,Phase_Test.stopped,loca_thermode,condition,temp_trial_sent,eval_douleur.started,eval_douleur.stopped,ratingScale.response,ratingScale.rt,thermode_locali.stopped,Fin_test.started,text.started,Fin_test.stopped,pause_5_EVA.started,pause_5_EVA.stopped,tâche_EVA.started,thermode_locali_EVA.started,tâche_EVA.stopped,thermode_locali_EVA.stopped,instructions_discrim.started,instructions_discrim.stopped,pause_5_pic.started,pause_5_pic.stopped,tâche_PIC.started,thermode_locali_pic.started,percu_or.started,responser.started,thermode_locali_pic.stopped,percu_or.stopped,responser.stopped,tâche_PIC.stopped,dur_plateau1,dur_plateau2,dur_plateau1_sent,dur_plateau2_sent,start_plateau_2_resp,dur_pic,dur_rise,pic_presence,pic_response,discrimin_resp.keys,discrimin_resp.rt,discrimin_resp.duration,break_entre_bloc.started,break_entre_bloc.stopped,merci.started,merci.stopped,participant,temp_flat,temp_active,temp_pic_set,com_thermode,date,expName,psychopyVersion,frameRate,expStart,
0,0,0,0,0,0,0,0,,,,,,,,,,,,,228.55490190000273,,0.002538300002925098,222.838437300059,222.83886510005686,224.05506380007137,224.055070900009,228.5384641001001,228.538775300025,233.53843000007328,233.5384374000132,233.55800520000048,245.55510350002442,0,inactive,43.0,245.55531730002258,250.82349760003854,0.5000000000000939,5.244,,,,,,,,,,,,,,,,,,,,,,,,,,,,,,,,,,,,,,,sub-068,43.0,41.9,43.85,COM3,2025-09-19_16h10.33.123,2024_RDpaindiscrimination_maintask,2023.2.3,59.97562591552984,2025-09-19 16h10.52.307201 -0400,
0,0,0,0,1,0,1,0,,,,,,,,,,,,,250.83865720010363,,,,,,,,250.82438870007172,255.8219941999996,255.82200210005976,255.8385142000625,267.8223060000455,1,active,41.9,267.82244610006455,273.17458059999626,6.0000000000000675,5.331,267.85537320002913,,,,,,,,,,,,,,,,,,,,,,,,,,,,,,,,,,,,,,sub-068,43.0,41.9,43.85,COM3,2025-09-19_16h10.33.123,2024_RDpaindiscrimination_maintask,2023.2.3,59.97562591552984,2025-09-19 16h10.52.307201 -0400,
0,0,0,0,2,0,2,0,,,,,,,,,,,,,273.18874050001614,,,,,,,,273.175363700022,278.17221490002703,278.1722207000712,278.18879460007884,290.1725989000406,2,active,41.9,290.1727386000566,292.64130300004035,22.00000000000003,2.448,290.20556600007694,,,,,,,,,,,,,,,,,,,,,,,,,,,,,,,,,,,,,,sub-068,43.0,41.9,43.85,COM3,2025-09-19_16h10.33.123,2024_RDpaindiscrimination_maintask,2023.2.3,59.97562591552984,2025-09-19 16h10.52.307201 -0400,
0,0,0,0,3,0,3,0,,,,,,,,,,,,,292.6556775000645,,,,,,,,292.6420659000287,297.6391410001088,297.6391471000388,297.65565070009325,309.6394169999985,3,inactive,43.0,309.63955560000613,313.05937680008356,41.99999999999999,3.4,309.67239750002045,,,,,,,,,,,,,,,,,,,,,,,,,,,,,,,,,,,,,,sub-068,43.0,41.9,43.85,COM3,2025-09-19_16h10.33.123,2024_RDpaindiscrimination_maintask,2023.2.3,59.97562591552984,2025-09-19 16h10.52.307201 -0400,
0,0,0,0,4,0,4,0,,,,,,,,,,,,,313.07250790006947,,,,,,,,313.0601673000492,318.0559998000972,318.0560086000478,318.07252040004823,330.0563139000442,0,active,41.9,330.0564549000701,334.1743060000008,44.00000000000006,4.097,330.0893767999951,,,,,,,,,,,,,,,,,,,,,,,,,,,,,,,,,,,,,,sub-068,43.0,41.9,43.85,COM3,2025-09-19_16h10.33.123,2024_RDpaindiscrimination_maintask,2023.2.3,59.97562591552984,2025-09-19 16h10.52.307201 -0400,
0,0,0,0,5,0,5,0,,,,,,,,,,,,,334.1894074000884,,,,,,,,334.1750926000532,339.1728667001007,339.17287230002694,339.1894182000542,351.1730739000486,1,inactive,43.0,351.1732129000593,355.30817480001133,52.500000000000064,4.115,351.20610280008987,,,,,,,,,,,,,,,,,,,,,,,,,,,,,,,,,,,,,,sub-068,43.0,41.9,43.85,COM3,2025-09-19_16h10.33.123,2024_RDpaindiscrimination_maintask,2023.2.3,59.97562591552984,2025-09-19 16h10.52.307201 -0400,
0,0,0,0,6,0,6,0,,,,,,,,,,,,,355.32281170005444,,,,,,,,355.3085666000843,360.30632590001915,360.3063320000656,360.322860000073,372.30675620003603,2,inactive,43.0,372.3068949000444,375.9253139999928,67.00000000000004,3.598,372.33977630001027,,,,,,,,,,,,,,,,,,,,,,,,,,,,,,,,,,,,,,sub-068,43.0,41.9,43.85,COM3,2025-09-19_16h10.33.123,2024_RDpaindiscrimination_maintask,2023.2.3,59.97562591552984,2025-09-19 16h10.52.307201 -0400,
0,0,0,0,7,0,7,0,,,,,,,,,,,,,375.9397608001018,,,,,,,,375.92607530008536,380.9232069000136,380.9232132000616,380.93974490009714,392.9236276000738,3,active,41.9,392.92376720008906,395.575846199994,50.0,2.631,392.9566476000473,,,,,,,,,,,,,,,,,,,,,,,,,,,,,,,,,,,,,,sub-068,43.0,41.9,43.85,COM3,2025-09-19_16h10.33.123,2024_RDpaindiscrimination_maintask,2023.2.3,59.97562591552984,2025-09-19 16h10.52.307201 -0400,
0,0,0,0,8,0,8,0,,,,,,,,,,,,,395.5900205000071,,,,,,,,395.5766427000053,400.57340540003497,400.5734123000875,400.5899597000098,412.57378010009415,0,inactive,43.0,412.57392029999755,416.02483810007107,46.000000000000014,3.431,412.6067362000467,,,,,,,,,,,,,,,,,,,,,,,,,,,,,,,,,,,,,,sub-068,43.0,41.9,43.85,COM3,2025-09-19_16h10.33.123,2024_RDpaindiscrimination_maintask,2023.2.3,59.97562591552984,2025-09-19 16h10.52.307201 -0400,
0,0,0,0,9,0,9,0,,,,,,,,,,,,,416.0402204000857,,,,,,,,416.0256069001043,421.0237387000816,421.0237443000078,421.0402407000074,433.0238985000178,1,active,41.9,433.0240391000407,436.9418463000329,36.500000000000156,3.897,433.0569834000198,,,,,,,,,,,,,,,,,,,,,,,,,,,,,,,,,,,,,,sub-068,43.0,41.9,43.85,COM3,2025-09-19_16h10.33.123,2024_RDpaindiscrimination_maintask,2023.2.3,59.97562591552984,2025-09-19 16h10.52.307201 -0400,
0,0,0,0,10,0,10,0,,,,,,,,,,,,,436.95710750005674,,,,,,,,436.94260020006914,441.9405985000776,441.9406052000122,441.95712610008195,453.9408526000334,2,inactive,43.0,453.9409881000174,457.8426908000838,63.999999999999915,3.882,453.9739497000119,,,,,,,,,,,,,,,,,,,,,,,,,,,,,,,,,,,,,,sub-068,43.0,41.9,43.85,COM3,2025-09-19_16h10.33.123,2024_RDpaindiscrimination_maintask,2023.2.3,59.97562591552984,2025-09-19 16h10.52.307201 -0400,
0,0,0,0,11,0,11,0,,,,,,,,,,,,,457.85732710000593,,,,,,,,457.8434814000502,462.84090390009806,462.8409094000235,462.85731980006676,474.8411418000469,3,active,41.9,474.8412815000629,479.45977310009766,49.4999999999999,4.599,474.87409560009837,,,,,,,,,,,,,,,,,,,,,,,,,,,,,,,,,,,,,,sub-068,43.0,41.9,43.85,COM3,2025-09-19_16h10.33.123,2024_RDpaindiscrimination_maintask,2023.2.3,59.97562591552984,2025-09-19 16h10.52.307201 -0400,
0,0,0,0,12,0,12,0,,,,,,,,,,,,,479.4742228999967,,,,,,,,479.4605844001053,484.457647100091,484.4576537000248,484.47423200006597,496.4580349000171,0,active,41.9,496.4581707000034,499.9597466000123,9.000000000000167,3.481,496.4909981000237,,,,,,,,,,,,,,,,,,,,,,,,,,,,,,,,,,,,,,sub-068,43.0,41.9,43.85,COM3,2025-09-19_16h10.33.123,2024_RDpaindiscrimination_maintask,2023.2.3,59.97562591552984,2025-09-19 16h10.52.307201 -0400,
0,0,0,0,13,0,13,0,,,,,,,,,,,,,499.9744808000978,,,,,,,,499.96051640005317,504.95790949999355,504.95791600004304,504.974384500063,516.9582766999956,1,inactive,43.0,516.9584121000953,520.4109497000463,35.49999999999994,3.432,516.991344600101,,,,,,,,,,,,,,,,,,,,,,,,,,,,,,,,,,,,,,sub-068,43.0,41.9,43.85,COM3,2025-09-19_16h10.33.123,2024_RDpaindiscrimination_maintask,2023.2.3,59.97562591552984,2025-09-19 16h10.52.307201 -0400,
0,0,0,0,14,0,14,0,,,,,,,,,,,,,520.4246639000485,,,,,,,,520.4117210000986,525.4081738000968,525.4081799000269,525.4247611000901,537.4084902000614,2,active,41.9,537.4086328000994,541.5939023999963,34.999999999999986,4.165,537.4414591999957,,,,,,,,,,,,,,,,,,,,,,,,,,,,,,,,,,,,,,sub-068,43.0,41.9,43.85,COM3,2025-09-19_16h10.33.123,2024_RDpaindiscrimination_maintask,2023.2.3,59.97562591552984,2025-09-19 16h10.52.307201 -0400,
0,0,0,0,15,0,15,0,,,,,,,,,,,,,541.6082056000596,,,,,,,,541.5946593000554,546.5917441000929,546.5917509000283,546.608288400108,558.5919581000926,3,inactive,43.0,558.5921135999961,562.3117637000978,82.9999999999999,3.7,558.6250102000777,,,,,,,,,,,,,,,,,,,,,,,,,,,,,,,,,,,,,,sub-068,43.0,41.9,43.85,COM3,2025-09-19_16h10.33.123,2024_RDpaindiscrimination_maintask,2023.2.3,59.97562591552984,2025-09-19 16h10.52.307201 -0400,
0,0,0,0,,,,,0,0,0,0,0,0,0,0,,,,,587.2919334000908,,,,,,586.2425256000133,587.2755103000673,,,,,,0,active,43.0,604.275608099997,607.5104088000953,59.99999999999989,3.214,,562.3123528000433,562.325249500107,586.2422093000496,587.2757895000977,592.2754879000131,592.2754951000679,592.2919990000082,604.2756005000556,,,,,,,,,,,,,,,,,,,,,,,,,,,,,,sub-068,43.0,41.9,43.85,COM3,2025-09-19_16h10.33.123,2024_RDpaindiscrimination_maintask,2023.2.3,59.97562591552984,2025-09-19 16h10.52.307201 -0400,
0,0,0,0,,,,,0,0,0,0,1,0,1,0,,,,,607.5255623999983,,,,,,,,,,,,,1,inactive,43.0,624.5093936000485,628.7785967000527,61.49999999999986,4.249,,,,,607.5111713000806,612.509048600099,612.5090552000329,612.5255910000997,624.509386699996,624.542414000025,,,,,,,,,,,,,,,,,,,,,,,,,,,,,sub-068,43.0,41.9,43.85,COM3,2025-09-19_16h10.33.123,2024_RDpaindiscrimination_maintask,2023.2.3,59.97562591552984,2025-09-19 16h10.52.307201 -0400,
0,0,0,0,,,,,0,0,0,0,,,,,0,0,0,0,642.6591844001086,,,,,,,,,,,,,2,active,,,,,,,,,,,,,,,,628.7791017000563,642.6427122000605,642.6430212000851,647.6427544000326,647.6427619000897,647.6592172000092,655.6427407000447,655.6427407000447,658.609329400002,658.6426673000678,658.6426673000678,658.6261434000917,3.34,5.46,334,546,8,1.2,0.75,pic-absent,0,n,1.3032608999637887,None,,,,,sub-068,43.0,41.9,43.85,COM3,2025-09-19_16h10.33.123,2024_RDpaindiscrimination_maintask,2023.2.3,59.97562591552984,2025-09-19 16h10.52.307201 -0400,
0,0,0,0,,,,,0,0,0,0,,,,,1,0,1,0,658.6426673000678,,,,,,,,,,,,,3,active,,,,,,,,,,,,,,,,,,658.6267125000013,663.626316800015,663.6263232000638,663.6428820000729,671.6262138000457,671.6262138000457,674.5928564000642,674.6261703000637,674.6261703000637,674.6097154000308,3.58,5.22,358,522,8,1.2,0.75,pic-present,1,m,1.0403995999367908,None,,,,,sub-068,43.0,41.9,43.85,COM3,2025-09-19_16h10.33.123,2024_RDpaindiscrimination_maintask,2023.2.3,59.97562591552984,2025-09-19 16h10.52.307201 -0400,
0,0,0,0,,,,,0,0,0,0,,,,,2,0,2,0,674.6261703000637,,,,,,,,,,,,,0,inactive,,,,,,,,,,,,,,,,,,674.6101984000998,679.6097562001087,679.6097620000364,679.6262992999982,687.6096609000815,687.6096609000815,690.5764224000741,690.609731500037,690.609731500037,690.5932516000466,4.33,4.47,433,447,8,1.2,0.75,pic-absent,0,n,0.8046920000342652,None,,,,,sub-068,43.0,41.9,43.85,COM3,2025-09-19_16h10.33.123,2024_RDpaindiscrimination_maintask,2023.2.3,59.97562591552984,2025-09-19 16h10.52.307201 -0400,
0,0,0,0,,,,,0,0,0,0,,,,,3,0,3,0,690.609731500037,,,,,,,,,,,,,1,active,,,,,,,,,,,,,,,,,,690.5937190999975,695.5931822001003,695.5931885000318,695.6097821000731,703.5933067000005,703.5933067000005,706.5598770000506,706.5932058000471,706.5932058000471,706.5767524000257,4.03,4.77,403,476,8,1.2,0.75,pic-present,1,m,0.6771229000296444,None,,,,,sub-068,43.0,41.9,43.85,COM3,2025-09-19_16h10.33.123,2024_RDpaindiscrimination_maintask,2023.2.3,59.97562591552984,2025-09-19 16h10.52.307201 -0400,
0,0,0,0,,,,,1,0,1,0,0,0,0,0,,,,,707.5433020000346,,,,,,706.5772842000006,707.5268548000604,,,,,,2,inactive,43.0,724.5271403000224,727.4628137000836,55.99999999999987,2.915,,,,,707.5271595000522,712.5268257000716,712.5268334000139,712.5433581999969,724.5271329000825,724.560244900058,,,,,,,,,,,,,,,,,,,,,,,,,,,,,sub-068,43.0,41.9,43.85,COM3,2025-09-19_16h10.33.123,2024_RDpaindiscrimination_maintask,2023.2.3,59.97562591552984,2025-09-19 16h10.52.307201 -0400,
0,0,0,0,,,,,1,0,1,0,1,0,1,0,,,,,727.4769001000095,,,,,,,,,,,,,3,active,43.0,744.4606879000785,748.5463737000246,59.99999999999989,4.066,,,,,727.4635908000637,732.4604262000648,732.4604328999994,732.4769095000811,744.4606809000252,744.4936933000572,,,,,,,,,,,,,,,,,,,,,,,,,,,,,sub-068,43.0,41.9,43.85,COM3,2025-09-19_16h10.33.123,2024_RDpaindiscrimination_maintask,2023.2.3,59.97562591552984,2025-09-19 16h10.52.307201 -0400,
0,0,0,0,,,,,1,0,1,0,,,,,0,0,0,0,749.5937030001078,,,,,,,,,,,,,0,active,,,,,,,,,,,,,,,,748.5469187000999,749.5773158000084,749.5776109000435,754.5772257000208,754.5772325000726,754.5937930000946,762.5772127000382,762.5772127000382,765.5439214000944,765.5772445000475,765.5772445000475,765.560809000046,3.51,5.29,351,529,8,1.2,0.75,pic-present,1,m,0.8380909999832511,None,,,,,sub-068,43.0,41.9,43.85,COM3,2025-09-19_16h10.33.123,2024_RDpaindiscrimination_maintask,2023.2.3,59.97562591552984,2025-09-19 16h10.52.307201 -0400,
0,0,0,0,,,,,1,0,1,0,,,,,1,0,1,0,765.5772445000475,,,,,,,,,,,,,1,inactive,,,,,,,,,,,,,,,,,,765.5613129000412,770.5607656000648,770.5607725000009,770.5772978001041,778.5607274000067,778.5607274000067,781.5273756000679,781.5607018000446,781.5607018000446,781.5442022000207,4.02,4.78,401,478,8,1.2,0.75,pic-absent,0,n,1.1658136999467388,None,,,,,sub-068,43.0,41.9,43.85,COM3,2025-09-19_16h10.33.123,2024_RDpaindiscrimination_maintask,2023.2.3,59.97562591552984,2025-09-19 16h10.52.307201 -0400,
0,0,0,0,,,,,1,0,1,0,,,,,2,0,2,0,781.5607018000446,,,,,,,,,,,,,2,inactive,,,,,,,,,,,,,,,,,,781.5446627000347,786.5442235000664,786.5442301000003,786.560761300032,794.5441830001073,794.5441830001073,797.5108920000494,797.5442165000131,797.5442165000131,797.5277058000211,3.56,5.24,356,524,8,1.2,0.75,pic-present,1,m,0.7068386999890208,None,,,,,sub-068,43.0,41.9,43.85,COM3,2025-09-19_16h10.33.123,2024_RDpaindiscrimination_maintask,2023.2.3,59.97562591552984,2025-09-19 16h10.52.307201 -0400,
0,0,0,0,,,,,1,0,1,0,,,,,3,0,3,0,797.5442165000131,,,,,,,,,,,,,3,active,,,,,,,,,,,,,,,,,,797.5281818000367,802.5277561000548,802.5277624001028,802.5442719000857,810.5277056000195,810.5277056000195,813.4944005000871,813.5277085000416,813.5277085000416,813.5113195000449,3.8,5.0,380,500,8,1.2,0.75,pic-absent,0,n,0.8346885000355542,None,,,,,sub-068,43.0,41.9,43.85,COM3,2025-09-19_16h10.33.123,2024_RDpaindiscrimination_maintask,2023.2.3,59.97562591552984,2025-09-19 16h10.52.307201 -0400,
0,0,0,0,,,,,2,0,2,0,0,0,0,0,,,,,814.0276858001016,,,,,,813.5118340000045,814.0114335000981,,,,,,0,active,43.0,831.0116024001036,834.6469040000811,44.49999999999992,3.615,,,,,814.0117145000258,819.0112515999936,819.0112587000476,819.0277715000557,831.011594700045,831.0445559000364,,,,,,,,,,,,,,,,,,,,,,,,,,,,,sub-068,43.0,41.9,43.85,COM3,2025-09-19_16h10.33.123,2024_RDpaindiscrimination_maintask,2023.2.3,59.97562591552984,2025-09-19 16h10.52.307201 -0400,
0,0,0,0,,,,,2,0,2,0,1,0,1,0,,,,,834.6612972000148,,,,,,,,,,,,,1,inactive,43.0,851.6450444000075,854.4973583000246,61.49999999999992,2.833,,,,,834.6476628000382,839.6447902000509,839.6447969001019,839.6613144000294,851.6450358000584,851.6782216000138,,,,,,,,,,,,,,,,,,,,,,,,,,,,,sub-068,43.0,41.9,43.85,COM3,2025-09-19_16h10.33.123,2024_RDpaindiscrimination_maintask,2023.2.3,59.97562591552984,2025-09-19 16h10.52.307201 -0400,
0,0,0,0,,,,,2,0,2,0,,,,,0,0,0,0,856.1280797000509,,,,,,,,,,,,,2,inactive,,,,,,,,,,,,,,,,854.4978563000914,856.1116928000702,856.1120251000393,861.1116345000919,861.1116412000265,861.1281295000808,869.1115879000863,869.1115879000863,872.07828840008,872.1116136000492,872.1116136000492,872.0951200000709,4.68,4.12,468,412,8,1.2,0.75,pic-present,1,m,1.550123600056395,None,,,,,sub-068,43.0,41.9,43.85,COM3,2025-09-19_16h10.33.123,2024_RDpaindiscrimination_maintask,2023.2.3,59.97562591552984,2025-09-19 16h10.52.307201 -0400,
0,0,0,0,,,,,2,0,2,0,,,,,1,0,1,0,872.1116136000492,,,,,,,,,,,,,3,inactive,,,,,,,,,,,,,,,,,,872.0956270000897,877.0951261000009,877.0951325000497,877.1116714000236,885.0951744000195,885.0951744000195,888.0618232000852,888.0952709000558,888.0952709000558,888.0786996000679,3.58,5.22,358,522,8,1.2,0.75,pic-present,1,m,0.9197534000268206,None,,,,,sub-068,43.0,41.9,43.85,COM3,2025-09-19_16h10.33.123,2024_RDpaindiscrimination_maintask,2023.2.3,59.97562591552984,2025-09-19 16h10.52.307201 -0400,
0,0,0,0,,,,,2,0,2,0,,,,,2,0,2,0,888.0952709000558,,,,,,,,,,,,,0,active,,,,,,,,,,,,,,,,,,888.0792245001066,893.0787256000331,893.0787329000887,893.0952406000579,901.078683400061,901.078683400061,904.0452928000595,904.0786221000599,904.0786221000599,904.0621082000434,4.25,4.55,425,455,8,1.2,0.75,pic-absent,0,n,0.9069746999302879,None,,,,,sub-068,43.0,41.9,43.85,COM3,2025-09-19_16h10.33.123,2024_RDpaindiscrimination_maintask,2023.2.3,59.97562591552984,2025-09-19 16h10.52.307201 -0400,
0,0,0,0,,,,,2,0,2,0,,,,,3,0,3,0,904.0786221000599,,,,,,,,,,,,,1,inactive,,,,,,,,,,,,,,,,,,904.0625512000406,909.062231900054,909.062238200102,909.0788208000595,917.0620556001086,917.0620556001086,920.0287528000772,920.0621265000664,920.0621265000664,920.0456110000378,3.91,4.89,391,488,8,1.2,0.75,pic-present,0,n,0.948085300042294,None,,,,,sub-068,43.0,41.9,43.85,COM3,2025-09-19_16h10.33.123,2024_RDpaindiscrimination_maintask,2023.2.3,59.97562591552984,2025-09-19 16h10.52.307201 -0400,
0,0,0,0,,,,,3,0,3,0,0,0,0,0,,,,,921.16211080004,,,,,,920.0460812000092,921.1458811000921,,,,,,2,inactive,43.0,938.1460390000138,941.2814072000328,49.99999999999993,3.115,,,,,921.1461957000429,926.1456827000948,926.1456895000301,926.1622597000096,938.1460308000678,938.1789807000896,,,,,,,,,,,,,,,,,,,,,,,,,,,,,sub-068,43.0,41.9,43.85,COM3,2025-09-19_16h10.33.123,2024_RDpaindiscrimination_maintask,2023.2.3,59.97562591552984,2025-09-19 16h10.52.307201 -0400,
0,0,0,0,,,,,3,0,3,0,1,0,1,0,,,,,941.2957576001063,,,,,,,,,,,,,3,active,43.0,958.2795267000329,961.6653243000619,72.49999999999989,3.366,,,,,941.2821676000021,946.2792872000718,946.2792942000087,946.2958093000343,958.2795200000983,958.312559400103,,,,,,,,,,,,,,,,,,,,,,,,,,,,,sub-068,43.0,41.9,43.85,COM3,2025-09-19_16h10.33.123,2024_RDpaindiscrimination_maintask,2023.2.3,59.97562591552984,2025-09-19 16h10.52.307201 -0400,
0,0,0,0,,,,,3,0,3,0,,,,,0,0,0,0,963.0126362000592,,,,,,,,,,,,,0,inactive,,,,,,,,,,,,,,,,961.6658819000004,962.9961996000493,962.9964909000555,967.9960669000866,967.9960740000242,968.0125868000323,975.9961223000428,975.9961223000428,978.9627396001015,978.9960794000654,978.9960794000654,978.9795704000862,4.35,4.45,434,445,8,1.2,0.75,pic-absent,0,n,0.7973440999630839,None,,,,,sub-068,43.0,41.9,43.85,COM3,2025-09-19_16h10.33.123,2024_RDpaindiscrimination_maintask,2023.2.3,59.97562591552984,2025-09-19 16h10.52.307201 -0400,
0,0,0,0,,,,,3,0,3,0,,,,,1,0,1,0,978.9960794000654,,,,,,,,,,,,,1,active,,,,,,,,,,,,,,,,,,978.980094700004,983.9795618000207,983.9795679000672,983.996139200055,991.9795883001061,991.9795883001061,994.9462895001052,994.9796295000706,994.9796295000706,994.9631030000746,3.37,5.43,337,543,8,1.2,0.75,pic-absent,0,n,1.0181154999881983,None,,,,,sub-068,43.0,41.9,43.85,COM3,2025-09-19_16h10.33.123,2024_RDpaindiscrimination_maintask,2023.2.3,59.97562591552984,2025-09-19 16h10.52.307201 -0400,
0,0,0,0,,,,,3,0,3,0,,,,,2,0,2,0,994.9796295000706,,,,,,,,,,,,,2,active,,,,,,,,,,,,,,,,,,994.9635478000855,999.963073000079,999.9630795000121,999.9795979000628,1007.9630484000081,1007.9630484000081,1010.929710800061,1010.9630534000462,1010.9630534000462,1010.9465287000639,4.28,4.52,428,451,8,1.2,0.75,pic-present,1,m,0.7151255999924615,None,,,,,sub-068,43.0,41.9,43.85,COM3,2025-09-19_16h10.33.123,2024_RDpaindiscrimination_maintask,2023.2.3,59.97562591552984,2025-09-19 16h10.52.307201 -0400,
0,0,0,0,,,,,3,0,3,0,,,,,3,0,3,0,1010.9630534000462,,,,,,,,,,,,,3,inactive,,,,,,,,,,,,,,,,,,1010.9469756000908,1015.9465824000072,1015.946589200059,1015.963099900051,1023.9465582000557,1023.9465582000557,1026.9132172000827,1026.9465229000198,1026.9465229000198,1026.9301503000315,4.7,4.1,470,409,8,1.2,0.75,pic-absent,0,n,0.8552015000022948,None,,,,,sub-068,43.0,41.9,43.85,COM3,2025-09-19_16h10.33.123,2024_RDpaindiscrimination_maintask,2023.2.3,59.97562591552984,2025-09-19 16h10.52.307201 -0400,
1,0,1,0,0,0,0,0,,,,,,,,,,,,,1071.6137187000131,,,,1051.4638968000654,1053.2304825000465,1053.230489800102,1071.5973147000186,1071.59760800004,1076.597288100049,1076.5972942000953,1076.6138899000362,1088.5976363000227,0,active,41.9,1088.5978447000962,1092.3994903001003,3.5000000000000937,3.777,1088.6305022001034,,,,,,,,,,,,,,,,,,,,,,,,,,,,,,,,,,1026.9305924000219,1051.4637729000533,,,sub-068,43.0,41.9,43.85,COM3,2025-09-19_16h10.33.123,2024_RDpaindiscrimination_maintask,2023.2.3,59.97562591552984,2025-09-19 16h10.52.307201 -0400,
1,0,1,0,1,0,1,0,,,,,,,,,,,,,1092.4140520000365,,,,,,,,1092.4003789999988,1097.3975794001017,1097.3975878000492,1097.4140673000365,1109.3977884000633,1,inactive,43.0,1109.3979368000291,1112.2661516000517,45.000000000000085,2.848,1109.4308537000325,,,,,,,,,,,,,,,,,,,,,,,,,,,,,,,,,,,,,,sub-068,43.0,41.9,43.85,COM3,2025-09-19_16h10.33.123,2024_RDpaindiscrimination_maintask,2023.2.3,59.97562591552984,2025-09-19 16h10.52.307201 -0400,
1,0,1,0,2,0,2,0,,,,,,,,,,,,,1112.280860900064,,,,,,,,1112.2669203000842,1117.2643749000272,1117.264381300076,1117.2808661001036,1129.2647387000034,2,active,41.9,1129.2648772000102,1131.3158895000815,36.99999999999997,2.031,1129.297741400078,,,,,,,,,,,,,,,,,,,,,,,,,,,,,,,,,,,,,,sub-068,43.0,41.9,43.85,COM3,2025-09-19_16h10.33.123,2024_RDpaindiscrimination_maintask,2023.2.3,59.97562591552984,2025-09-19 16h10.52.307201 -0400,
1,0,1,0,3,0,3,0,,,,,,,,,,,,,1131.331108000013,,,,,,,,1131.3166378000751,1136.3147484000074,1136.3147567000706,1136.3310408000834,1148.3149357000366,3,active,41.9,1148.3150789000792,1150.6175823000958,57.49999999999997,2.282,1148.347937200102,,,,,,,,,,,,,,,,,,,,,,,,,,,,,,,,,,,,,,sub-068,43.0,41.9,43.85,COM3,2025-09-19_16h10.33.123,2024_RDpaindiscrimination_maintask,2023.2.3,59.97562591552984,2025-09-19 16h10.52.307201 -0400,
1,0,1,0,4,0,4,0,,,,,,,,,,,,,1150.6312806000933,,,,,,,,1150.6183554000454,1155.6147810000693,1155.6147869999986,1155.6313500000397,1167.6150487000123,0,inactive,43.0,1167.6152123000938,1172.8333460000576,61.99999999999985,5.198,1167.648044200032,,,,,,,,,,,,,,,,,,,,,,,,,,,,,,,,,,,,,,sub-068,43.0,41.9,43.85,COM3,2025-09-19_16h10.33.123,2024_RDpaindiscrimination_maintask,2023.2.3,59.97562591552984,2025-09-19 16h10.52.307201 -0400,
1,0,1,0,5,0,5,0,,,,,,,,,,,,,1172.848234300036,,,,,,,,1172.8341406000545,1177.8316944000544,1177.8317007001024,1177.8482010000153,1189.8320558000123,1,active,41.9,1189.8322073000018,1193.5001449000556,9.500000000000169,3.648,1189.8650359000312,,,,,,,,,,,,,,,,,,,,,,,,,,,,,,,,,,,,,,sub-068,43.0,41.9,43.85,COM3,2025-09-19_16h10.33.123,2024_RDpaindiscrimination_maintask,2023.2.3,59.97562591552984,2025-09-19 16h10.52.307201 -0400,
1,0,1,0,6,0,6,0,,,,,,,,,,,,,1193.5150784000289,,,,,,,,1193.5009054000257,1198.4985837000422,1198.4985899000894,1198.5150585999945,1210.4988783000736,2,inactive,43.0,1210.4990222000051,1214.7344780000858,61.999999999999886,4.215,1210.5319777000695,,,,,,,,,,,,,,,,,,,,,,,,,,,,,,,,,,,,,,sub-068,43.0,41.9,43.85,COM3,2025-09-19_16h10.33.123,2024_RDpaindiscrimination_maintask,2023.2.3,59.97562591552984,2025-09-19 16h10.52.307201 -0400,
1,0,1,0,7,0,7,0,,,,,,,,,,,,,1214.7486300000455,,,,,,,,1214.7352362000383,1219.7321309000254,1219.7321371000726,1219.7486208000919,1231.7325546001084,3,inactive,43.0,1231.7326949000126,1234.9678272000747,66.99999999999987,3.215,1231.7654416000005,,,,,,,,,,,,,,,,,,,,,,,,,,,,,,,,,,,,,,sub-068,43.0,41.9,43.85,COM3,2025-09-19_16h10.33.123,2024_RDpaindiscrimination_maintask,2023.2.3,59.97562591552984,2025-09-19 16h10.52.307201 -0400,
1,0,1,0,8,0,8,0,,,,,,,,,,,,,1234.9821495000506,,,,,,,,1234.968575200066,1239.9656465000007,1239.9656529000495,1239.982163000037,1251.965890499996,0,active,41.9,1251.966030600015,1254.118087500101,0.49999999999998795,2.132,1251.9989678000566,,,,,,,,,,,,,,,,,,,,,,,,,,,,,,,,,,,,,,sub-068,43.0,41.9,43.85,COM3,2025-09-19_16h10.33.123,2024_RDpaindiscrimination_maintask,2023.2.3,59.97562591552984,2025-09-19 16h10.52.307201 -0400,
1,0,1,0,9,0,9,0,,,,,,,,,,,,,1254.1323699000059,,,,,,,,1254.1191346000414,1259.11586790008,1259.1158742000116,1259.1323912000516,1271.1161574000726,1,inactive,43.0,1271.1163011000026,1273.6351141000632,53.99999999999988,2.499,1271.149127600016,,,,,,,,,,,,,,,,,,,,,,,,,,,,,,,,,,,,,,sub-068,43.0,41.9,43.85,COM3,2025-09-19_16h10.33.123,2024_RDpaindiscrimination_maintask,2023.2.3,59.97562591552984,2025-09-19 16h10.52.307201 -0400,
1,0,1,0,10,0,10,0,,,,,,,,,,,,,1273.6492799000116,,,,,,,,1273.6358803000767,1278.6328103000997,1278.6328170000343,1278.6493183000712,1290.633097400074,2,active,41.9,1290.6332378000952,1295.367995900102,10.500000000000071,4.715,1290.6661242000991,,,,,,,,,,,,,,,,,,,,,,,,,,,,,,,,,,,,,,sub-068,43.0,41.9,43.85,COM3,2025-09-19_16h10.33.123,2024_RDpaindiscrimination_maintask,2023.2.3,59.97562591552984,2025-09-19 16h10.52.307201 -0400,
1,0,1,0,11,0,11,0,,,,,,,,,,,,,1295.3828373000724,,,,,,,,1295.369012500043,1300.3663589000935,1300.3663654000266,1300.3828885999974,1312.3666338000912,3,inactive,43.0,1312.3667709000874,1317.068480100017,80.4999999999998,4.681,1312.3996713000815,,,,,,,,,,,,,,,,,,,,,,,,,,,,,,,,,,,,,,sub-068,43.0,41.9,43.85,COM3,2025-09-19_16h10.33.123,2024_RDpaindiscrimination_maintask,2023.2.3,59.97562591552984,2025-09-19 16h10.52.307201 -0400,
1,0,1,0,12,0,12,0,,,,,,,,,,,,,1317.083066000021,,,,,,,,1317.0692832000786,1322.0665821000002,1322.0665888000512,1322.0830998000456,1334.0669606000884,0,inactive,43.0,1334.0671023000032,1336.819475300028,60.499999999999964,2.732,1334.0998824000126,,,,,,,,,,,,,,,,,,,,,,,,,,,,,,,,,,,,,,sub-068,43.0,41.9,43.85,COM3,2025-09-19_16h10.33.123,2024_RDpaindiscrimination_maintask,2023.2.3,59.97562591552984,2025-09-19 16h10.52.307201 -0400,
1,0,1,0,13,0,13,0,,,,,,,,,,,,,1336.8333477000706,,,,,,,,1336.8202631000895,1341.8166856000898,1341.8166918000206,1341.833204900031,1353.8170804000692,1,active,41.9,1353.8172225001035,1355.9033705000766,51.500000000000064,2.066,1353.8501012000488,,,,,,,,,,,,,,,,,,,,,,,,,,,,,,,,,,,,,,sub-068,43.0,41.9,43.85,COM3,2025-09-19_16h10.33.123,2024_RDpaindiscrimination_maintask,2023.2.3,59.97562591552984,2025-09-19 16h10.52.307201 -0400,
1,0,1,0,14,0,14,0,,,,,,,,,,,,,1355.9167242000112,,,,,,,,1355.9041340000695,1360.9001924000913,1360.900199100026,1360.9167064001085,1372.9004714000039,2,inactive,43.0,1372.9006130000344,1376.0850595000666,71.49999999999989,3.164,1372.933492600103,,,,,,,,,,,,,,,,,,,,,,,,,,,,,,,,,,,,,,sub-068,43.0,41.9,43.85,COM3,2025-09-19_16h10.33.123,2024_RDpaindiscrimination_maintask,2023.2.3,59.97562591552984,2025-09-19 16h10.52.307201 -0400,
1,0,1,0,15,0,15,0,,,,,,,,,,,,,1376.10036520008,,,,,,,,1376.0858823000453,1381.0837430000538,1381.0837498001056,1381.1002529000398,1393.0840843000915,3,active,41.9,1393.0842268000124,1396.1196002000943,54.50000000000006,3.015,1393.1171462000348,,,,,,,,,,,,,,,,,,,,,,,,,,,,,,,,,,,,,,sub-068,43.0,41.9,43.85,COM3,2025-09-19_16h10.33.123,2024_RDpaindiscrimination_maintask,2023.2.3,59.97562591552984,2025-09-19 16h10.52.307201 -0400,
1,0,1,0,,,,,0,0,0,0,0,0,0,0,,,,,1398.767146600061,,,,,,1398.6011222000234,1398.7507052000146,,,,,,0,inactive,43.0,1415.7508207000792,1418.7196923000738,23.500000000000163,2.949,,1396.1201870000223,1396.1337958000368,1398.6007729000412,1398.7509715000633,1403.7506502000615,1403.7506574,1403.7671945000766,1415.750812000013,,,,,,,,,,,,,,,,,,,,,,,,,,,,,,sub-068,43.0,41.9,43.85,COM3,2025-09-19_16h10.33.123,2024_RDpaindiscrimination_maintask,2023.2.3,59.97562591552984,2025-09-19 16h10.52.307201 -0400,
1,0,1,0,,,,,0,0,0,0,1,0,1,0,,,,,1418.734087400022,,,,,,,,,,,,,1,active,43.0,1435.7179151000455,1438.885867300094,65.50000000000001,3.148,,,,,1418.7204605001025,1423.7175914000254,1423.7175989000825,1423.734201000072,1435.7179081001086,1435.7508925000438,,,,,,,,,,,,,,,,,,,,,,,,,,,,,sub-068,43.0,41.9,43.85,COM3,2025-09-19_16h10.33.123,2024_RDpaindiscrimination_maintask,2023.2.3,59.97562591552984,2025-09-19 16h10.52.307201 -0400,
1,0,1,0,,,,,0,0,0,0,,,,,0,0,0,0,1440.7010406000772,,,,,,,,,,,,,2,inactive,,,,,,,,,,,,,,,,1438.886088600033,1440.684532500105,1440.6848493000725,1445.6844751000172,1445.6844830000773,1445.7010213000467,1453.6845105000539,1453.6845105000539,1456.6511494000442,1456.6844583000056,1456.6844583000056,1456.6679552000714,3.84,4.96,384,496,8,1.2,0.75,pic-present,1,m,0.7044624999398366,None,,,,,sub-068,43.0,41.9,43.85,COM3,2025-09-19_16h10.33.123,2024_RDpaindiscrimination_maintask,2023.2.3,59.97562591552984,2025-09-19 16h10.52.307201 -0400,
1,0,1,0,,,,,0,0,0,0,,,,,1,0,1,0,1456.6844583000056,,,,,,,,,,,,,3,active,,,,,,,,,,,,,,,,,,1456.6684528000187,1461.6679805000313,1461.6679871000815,1461.6845123000676,1469.6680063999956,1469.6680063999956,1472.6347152000526,1472.6680492000887,1472.6680492000887,1472.6515323000494,4.54,4.26,454,426,8,1.2,0.75,pic-absent,0,n,0.6785532999783754,None,,,,,sub-068,43.0,41.9,43.85,COM3,2025-09-19_16h10.33.123,2024_RDpaindiscrimination_maintask,2023.2.3,59.97562591552984,2025-09-19 16h10.52.307201 -0400,
1,0,1,0,,,,,0,0,0,0,,,,,2,0,2,0,1472.6680492000887,,,,,,,,,,,,,0,inactive,,,,,,,,,,,,,,,,,,1472.6520115000894,1477.6514879000606,1477.6514944999944,1477.6681114000967,1485.6514676000224,1485.6514676000224,1488.618127600057,1488.6514645999996,1488.6514645999996,1488.6349503000965,4.19,4.61,419,461,8,1.2,0.75,pic-absent,0,n,0.7338684999849647,None,,,,,sub-068,43.0,41.9,43.85,COM3,2025-09-19_16h10.33.123,2024_RDpaindiscrimination_maintask,2023.2.3,59.97562591552984,2025-09-19 16h10.52.307201 -0400,
1,0,1,0,,,,,0,0,0,0,,,,,3,0,3,0,1488.6514645999996,,,,,,,,,,,,,1,active,,,,,,,,,,,,,,,,,,1488.6353884000564,1493.6349926000694,1493.6350003000116,1493.6515206000768,1501.6349705000175,1501.6349705000175,1504.6016306000529,1504.635006400058,1504.635006400058,1504.6184473000467,4.06,4.74,405,474,8,1.2,0.75,pic-present,1,m,0.7142647999571636,None,,,,,sub-068,43.0,41.9,43.85,COM3,2025-09-19_16h10.33.123,2024_RDpaindiscrimination_maintask,2023.2.3,59.97562591552984,2025-09-19 16h10.52.307201 -0400,
1,0,1,0,,,,,1,0,1,0,0,0,0,0,,,,,1505.0016886000521,,,,,,1504.6189486000221,1504.9852575000841,,,,,,2,active,43.0,1521.9853104000213,1525.1373463000637,67.49999999999997,3.132,,,,,1504.9855472000781,1509.9852700000629,1509.985276499996,1510.0016936000902,1521.9853014000691,,,,,,,,,,,,,,,,,,,,,,,,,,,,,,sub-068,43.0,41.9,43.85,COM3,2025-09-19_16h10.33.123,2024_RDpaindiscrimination_maintask,2023.2.3,59.97562591552984,2025-09-19 16h10.52.307201 -0400,
1,0,1,0,,,,,1,0,1,0,1,0,1,0,,,,,1525.1518812000286,,,,,,,,,,,,,3,inactive,43.0,1542.1357374000363,1544.9211231000954,61.0,2.766,,,,,1525.137623500079,1530.1354589000111,1530.135465700063,1530.1519904000452,1542.1357305001002,1542.1687700001057,,,,,,,,,,,,,,,,,,,,,,,,,,,,,sub-068,43.0,41.9,43.85,COM3,2025-09-19_16h10.33.123,2024_RDpaindiscrimination_maintask,2023.2.3,59.97562591552984,2025-09-19 16h10.52.307201 -0400,
1,0,1,0,,,,,1,0,1,0,,,,,0,0,0,0,1546.4020325000165,,,,,,,,,,,,,0,active,,,,,,,,,,,,,,,,1544.9216097000754,1546.3857292000903,1546.386054100003,1551.3855780001031,1551.3855852000415,1551.4021019000793,1559.3854838000843,1559.3854838000843,1562.3522192999953,1562.3855681000277,1562.3855681000277,1562.369049900095,4.69,4.11,469,411,8,1.2,0.75,pic-absent,0,n,0.7680935000535101,None,,,,,sub-068,43.0,41.9,43.85,COM3,2025-09-19_16h10.33.123,2024_RDpaindiscrimination_maintask,2023.2.3,59.97562591552984,2025-09-19 16h10.52.307201 -0400,
1,0,1,0,,,,,1,0,1,0,,,,,1,0,1,0,1562.3855681000277,,,,,,,,,,,,,1,inactive,,,,,,,,,,,,,,,,,,1562.3696010001004,1567.369064000086,1567.3690710000228,1567.3856032000622,1575.369081000099,1575.369081000099,1578.3357985001057,1578.3690805000952,1578.3690805000952,1578.3526069000363,3.93,4.87,393,487,8,1.2,0.75,pic-absent,1,m,0.9158842000178993,None,,,,,sub-068,43.0,41.9,43.85,COM3,2025-09-19_16h10.33.123,2024_RDpaindiscrimination_maintask,2023.2.3,59.97562591552984,2025-09-19 16h10.52.307201 -0400,
1,0,1,0,,,,,1,0,1,0,,,,,2,0,2,0,1578.3690805000952,,,,,,,,,,,,,2,active,,,,,,,,,,,,,,,,,,1578.353050100035,1583.3525657000719,1583.3525720000034,1583.3691366000567,1591.3525177000556,1591.3525177000556,1594.3192219000775,1594.352603700012,1594.352603700012,1594.336029099999,3.71,5.09,371,509,8,1.2,0.75,pic-present,1,m,0.8925283999415115,None,,,,,sub-068,43.0,41.9,43.85,COM3,2025-09-19_16h10.33.123,2024_RDpaindiscrimination_maintask,2023.2.3,59.97562591552984,2025-09-19 16h10.52.307201 -0400,
1,0,1,0,,,,,1,0,1,0,,,,,3,0,3,0,1594.352603700012,,,,,,,,,,,,,3,active,,,,,,,,,,,,,,,,,,1594.3364944000496,1599.3360784000251,1599.3360858000815,1599.3526085000485,1607.3359838000033,1607.3359838000033,1610.3027542000636,1610.3360880000982,1610.3360880000982,1610.319541700068,4.69,4.11,469,411,8,1.2,0.75,pic-absent,0,n,0.721390699967742,None,,,,,sub-068,43.0,41.9,43.85,COM3,2025-09-19_16h10.33.123,2024_RDpaindiscrimination_maintask,2023.2.3,59.97562591552984,2025-09-19 16h10.52.307201 -0400,
1,0,1,0,,,,,2,0,2,0,0,0,0,0,,,,,1611.4194029000355,,,,,,1610.3200180000858,1611.4029455001,,,,,,0,inactive,43.0,1628.4029820000287,1631.8716244000243,69.0,3.449,,,,,1611.4032526999945,1616.4029839000432,1616.402990700095,1616.41948650009,1628.402974100085,,,,,,,,,,,,,,,,,,,,,,,,,,,,,,sub-068,43.0,41.9,43.85,COM3,2025-09-19_16h10.33.123,2024_RDpaindiscrimination_maintask,2023.2.3,59.97562591552984,2025-09-19 16h10.52.307201 -0400,
1,0,1,0,,,,,2,0,2,0,1,0,1,0,,,,,1631.8863925000187,,,,,,,,,,,,,1,active,43.0,1648.8702534000622,1652.9216558000771,67.99999999999983,4.031,,,,,1631.8723513000878,1636.8699156000512,1636.8699219000991,1636.8864025000948,1648.870246400009,1648.9032314000651,,,,,,,,,,,,,,,,,,,,,,,,,,,,,sub-068,43.0,41.9,43.85,COM3,2025-09-19_16h10.33.123,2024_RDpaindiscrimination_maintask,2023.2.3,59.97562591552984,2025-09-19 16h10.52.307201 -0400,
1,0,1,0,,,,,2,0,2,0,,,,,0,0,0,0,1654.3198491000803,,,,,,,,,,,,,2,inactive,,,,,,,,,,,,,,,,1652.922176900087,1654.3034667000175,1654.3037752000382,1659.3034164001,1659.3034235000378,1659.3199449999956,1667.3034292000812,1667.3034292000812,1670.2701544000302,1670.30342380004,1670.30342380004,1670.2869899000507,3.76,5.04,376,504,8,1.2,0.75,pic-absent,1,m,1.5214755000779405,None,,,,,sub-068,43.0,41.9,43.85,COM3,2025-09-19_16h10.33.123,2024_RDpaindiscrimination_maintask,2023.2.3,59.97562591552984,2025-09-19 16h10.52.307201 -0400,
1,0,1,0,,,,,2,0,2,0,,,,,1,0,1,0,1670.30342380004,,,,,,,,,,,,,3,active,,,,,,,,,,,,,,,,,,1670.2875446000835,1675.286964100087,1675.286970700021,1675.3035210000817,1683.2869291000534,1683.2869291000534,1686.2535910001025,1686.2869762000628,1686.2869762000628,1686.2703886000672,3.79,5.01,379,501,8,1.2,0.75,pic-present,1,m,0.7825120999477804,None,,,,,sub-068,43.0,41.9,43.85,COM3,2025-09-19_16h10.33.123,2024_RDpaindiscrimination_maintask,2023.2.3,59.97562591552984,2025-09-19 16h10.52.307201 -0400,
1,0,1,0,,,,,2,0,2,0,,,,,2,0,2,0,1686.2869762000628,,,,,,,,,,,,,0,inactive,,,,,,,,,,,,,,,,,,1686.2708810000913,1691.2704695001012,1691.2704756000312,1691.287022100063,1699.2704458000371,1699.2704458000371,1702.2370661000023,1702.2704009000445,1702.2704009000445,1702.25387590006,4.62,4.18,462,418,8,1.2,0.75,pic-present,1,m,0.9182889999356121,None,,,,,sub-068,43.0,41.9,43.85,COM3,2025-09-19_16h10.33.123,2024_RDpaindiscrimination_maintask,2023.2.3,59.97562591552984,2025-09-19 16h10.52.307201 -0400,
1,0,1,0,,,,,2,0,2,0,,,,,3,0,3,0,1702.2704009000445,,,,,,,,,,,,,1,inactive,,,,,,,,,,,,,,,,,,1702.2543242000975,1707.2539337000344,1707.2539404000854,1707.2704187000636,1715.2539532000665,1715.2539532000665,1718.2205638000742,1718.2539327000268,1718.2539327000268,1718.2373863999965,3.31,5.49,331,549,8,1.2,0.75,pic-absent,0,n,0.6994488999480382,None,,,,,sub-068,43.0,41.9,43.85,COM3,2025-09-19_16h10.33.123,2024_RDpaindiscrimination_maintask,2023.2.3,59.97562591552984,2025-09-19 16h10.52.307201 -0400,
1,0,1,0,,,,,3,0,3,0,0,0,0,0,,,,,1719.2539869000902,,,,,,1718.2378968000412,1719.2375235999934,,,,,,2,active,43.0,1736.2375552000012,1739.2889920000453,64.49999999999991,3.031,,,,,1719.237823600066,1724.237472100067,1724.2374791000038,1724.2540088000242,1736.237547100056,,,,,,,,,,,,,,,,,,,,,,,,,,,,,,sub-068,43.0,41.9,43.85,COM3,2025-09-19_16h10.33.123,2024_RDpaindiscrimination_maintask,2023.2.3,59.97562591552984,2025-09-19 16h10.52.307201 -0400,
1,0,1,0,,,,,3,0,3,0,1,0,1,0,,,,,1739.3041609000647,,,,,,,,,,,,,3,inactive,43.0,1756.2879889000906,1760.0225812999997,68.99999999999983,3.714,,,,,1739.2897380000213,1744.2877525000367,1744.2877586000832,1744.3042538000736,1756.2879817000357,1756.3210424000863,,,,,,,,,,,,,,,,,,,,,,,,,,,,,sub-068,43.0,41.9,43.85,COM3,2025-09-19_16h10.33.123,2024_RDpaindiscrimination_maintask,2023.2.3,59.97562591552984,2025-09-19 16h10.52.307201 -0400,
1,0,1,0,,,,,3,0,3,0,,,,,0,0,0,0,1761.8877579000546,,,,,,,,,,,,,0,active,,,,,,,,,,,,,,,,1760.0231146001024,1761.8713907001074,1761.8716954000993,1766.8712541999994,1766.8712607000489,1766.887773100054,1774.8712382999947,1774.8712382999947,1777.8379054000834,1777.8712856000056,1777.8712856000056,1777.8548542000353,4.01,4.79,401,479,8,1.2,0.75,pic-present,1,m,0.8655074000125751,None,,,,,sub-068,43.0,41.9,43.85,COM3,2025-09-19_16h10.33.123,2024_RDpaindiscrimination_maintask,2023.2.3,59.97562591552984,2025-09-19 16h10.52.307201 -0400,
1,0,1,0,,,,,3,0,3,0,,,,,1,0,1,0,1777.8712856000056,,,,,,,,,,,,,1,inactive,,,,,,,,,,,,,,,,,,1777.8553768000565,1782.8547141000163,1782.8547206000658,1782.8712571000215,1790.8547555000987,1790.8547555000987,1793.821435400052,1793.8548766000895,1793.8548766000895,1793.8382311000023,4.35,4.45,434,445,8,1.2,0.75,pic-present,1,m,0.7752628999296576,None,,,,,sub-068,43.0,41.9,43.85,COM3,2025-09-19_16h10.33.123,2024_RDpaindiscrimination_maintask,2023.2.3,59.97562591552984,2025-09-19 16h10.52.307201 -0400,
1,0,1,0,,,,,3,0,3,0,,,,,2,0,2,0,1793.8548766000895,,,,,,,,,,,,,2,active,,,,,,,,,,,,,,,,,,1793.8387362000067,1798.8382529000519,1798.8382601001067,1798.8547603000188,1806.838258700096,1806.838258700096,1809.8048972000834,1809.8382850000635,1809.8382850000635,1809.8218058000784,3.46,5.34,346,534,8,1.2,0.75,pic-absent,0,n,0.7103623000439256,None,,,,,sub-068,43.0,41.9,43.85,COM3,2025-09-19_16h10.33.123,2024_RDpaindiscrimination_maintask,2023.2.3,59.97562591552984,2025-09-19 16h10.52.307201 -0400,
1,0,1,0,,,,,3,0,3,0,,,,,3,0,3,0,1809.8382850000635,,,,,,,,,,,,,3,inactive,,,,,,,,,,,,,,,,,,1809.8222668000963,1814.8217441000743,1814.8217504000058,1814.8383110000286,1822.8217411000514,1822.8217411000514,1825.788342999993,1825.821733100107,1825.821733100107,1825.8051612999989,4.08,4.72,408,472,8,1.2,0.75,pic-present,1,m,0.45122099993750453,None,,,,,sub-068,43.0,41.9,43.85,COM3,2025-09-19_16h10.33.123,2024_RDpaindiscrimination_maintask,2023.2.3,59.97562591552984,2025-09-19 16h10.52.307201 -0400,
,,,,,,,,,,,,,,,,,,,,,,,,,,,,,,,,,,,,,,,,,,,,,,,,,,,,,,,,,,,,,,,,,,,,,,,,,,1825.8056263000472,1827.705429200083,1827.705451900023,1837.7052668000106,,,,,,,,,,,
