trials.thisRepN,trials.thisTrialN,trials.thisN,trials.thisIndex,loop_test.thisRepN,loop_test.thisTrialN,loop_test.thisN,loop_test.thisIndex,loop_eval_discri.thisRepN,loop_eval_discri.thisTrialN,loop_eval_discri.thisN,loop_eval_discri.thisIndex,loop_eval.thisRepN,loop_eval.thisTrialN,loop_eval.thisN,loop_eval.thisIndex,loop_discri.thisRepN,loop_discri.thisTrialN,loop_discri.thisN,loop_discri.thisIndex,thisRow.t,notes,Set_up.started,Set_up.stopped,electrode_check.started,electrode_check.stopped,instructions_eval.started,instructions_eval.stopped,pause_5_test.started,pause_5_test.stopped,Phase_Test.started,thermode_locali.started,Phase_Test.stopped,loca_thermode,condition,temp_trial_sent,eval_douleur.started,eval_douleur.stopped,ratingScale.response,ratingScale.rt,thermode_locali.stopped,Fin_test.started,text.started,Fin_test.stopped,pause_5_EVA.started,pause_5_EVA.stopped,tâche_EVA.started,thermode_locali_EVA.started,tâche_EVA.stopped,thermode_locali_EVA.stopped,instructions_discrim.started,instructions_discrim.stopped,pause_5_pic.started,pause_5_pic.stopped,tâche_PIC.started,thermode_locali_pic.started,percu_or.started,responser.started,thermode_locali_pic.stopped,percu_or.stopped,responser.stopped,tâche_PIC.stopped,dur_plateau1,dur_plateau2,dur_plateau1_sent,dur_plateau2_sent,start_plateau_2_resp,dur_pic,dur_rise,pic_presence,pic_response,discrimin_resp.keys,discrimin_resp.rt,discrimin_resp.duration,break_entre_bloc.started,break_entre_bloc.stopped,merci.started,merci.stopped,participant,temp_flat,temp_active,temp_pic_set,com_thermode,date,expName,psychopyVersion,frameRate,expStart,
0,0,0,0,0,0,0,0,,,,,,,,,,,,,248.319048400037,,0.01629490009509027,227.36903120018542,227.36941460007802,228.8690954002086,228.86910230014473,248.28594520012848,248.28624360007234,253.30247120000422,253.3024772000499,253.32247610017657,265.3025642000139,0,inactive,45.9,265.30277440021746,271.4042861000635,44.999999999999986,6.077,,,,,,,,,,,,,,,,,,,,,,,,,,,,,,,,,,,,,,,sub-057,45.9,44.4,45.35,COM3,2025-06-19_15h59.29.560,2024_RDpaindiscrimination_maintask,2023.2.3,60.03997465390724,2025-06-19 15h59.46.466156 -0400,
0,0,0,0,1,0,1,0,,,,,,,,,,,,,271.41935440013185,,,,,,,,271.4051559001673,276.40284400014207,276.4028503000736,276.4194114001002,288.4031502001453,1,inactive,45.9,288.40328470012173,292.3882119001355,70.49999999999982,3.965,288.4362163001206,,,,,,,,,,,,,,,,,,,,,,,,,,,,,,,,,,,,,,sub-057,45.9,44.4,45.35,COM3,2025-06-19_15h59.29.560,2024_RDpaindiscrimination_maintask,2023.2.3,60.03997465390724,2025-06-19 15h59.46.466156 -0400,
0,0,0,0,2,0,2,0,,,,,,,,,,,,,292.4029267001897,,,,,,,,292.38900840003043,297.3864477002062,297.3864543000236,297.40297900000587,309.3866929002106,2,active,44.4,309.386832700111,313.6891964999959,42.000000000000064,4.282,309.4197910001967,,,,,,,,,,,,,,,,,,,,,,,,,,,,,,,,,,,,,,sub-057,45.9,44.4,45.35,COM3,2025-06-19_15h59.29.560,2024_RDpaindiscrimination_maintask,2023.2.3,60.03997465390724,2025-06-19 15h59.46.466156 -0400,
0,0,0,0,3,0,3,0,,,,,,,,,,,,,313.70317710004747,,,,,,,,313.68998240004294,318.68669480015524,318.68670180020854,318.7032376001589,330.68700520019047,3,inactive,45.9,330.6871412000619,334.73861700017005,71.9999999999999,4.031,330.71999620017596,,,,,,,,,,,,,,,,,,,,,,,,,,,,,,,,,,,,,,sub-057,45.9,44.4,45.35,COM3,2025-06-19_15h59.29.560,2024_RDpaindiscrimination_maintask,2023.2.3,60.03997465390724,2025-06-19 15h59.46.466156 -0400,
0,0,0,0,4,0,4,0,,,,,,,,,,,,,334.75342379999347,,,,,,,,334.73942730017006,339.7369360001758,339.7369414002169,339.75345459999517,351.737164700171,0,active,44.4,351.73730140016414,354.12233120016754,10.0,2.364,351.77017880021594,,,,,,,,,,,,,,,,,,,,,,,,,,,,,,,,,,,,,,sub-057,45.9,44.4,45.35,COM3,2025-06-19_15h59.29.560,2024_RDpaindiscrimination_maintask,2023.2.3,60.03997465390724,2025-06-19 15h59.46.466156 -0400,
0,0,0,0,5,0,5,0,,,,,,,,,,,,,354.136833100114,,,,,,,,354.12309080013074,359.1205295000691,359.1205367001239,359.13700720015913,371.1206850002054,1,active,44.4,371.12082460010424,374.18913710000925,52.99999999999996,3.048,371.1537437001243,,,,,,,,,,,,,,,,,,,,,,,,,,,,,,,,,,,,,,sub-057,45.9,44.4,45.35,COM3,2025-06-19_15h59.29.560,2024_RDpaindiscrimination_maintask,2023.2.3,60.03997465390724,2025-06-19 15h59.46.466156 -0400,
0,0,0,0,6,0,6,0,,,,,,,,,,,,,374.2039206000045,,,,,,,,374.1899007000029,379.18738950020634,379.18739590002224,379.20388990012,391.187710700091,2,inactive,45.9,391.18785180011764,393.44045350002125,83.99999999999991,2.232,391.22068960010074,,,,,,,,,,,,,,,,,,,,,,,,,,,,,,,,,,,,,,sub-057,45.9,44.4,45.35,COM3,2025-06-19_15h59.29.560,2024_RDpaindiscrimination_maintask,2023.2.3,60.03997465390724,2025-06-19 15h59.46.466156 -0400,
0,0,0,0,7,0,7,0,,,,,,,,,,,,,393.4539930000901,,,,,,,,393.44123410014436,398.43760010018013,398.43760649999604,398.45413359999657,410.437889700057,3,active,44.4,410.4380297001917,413.27275800006464,35.000000000000085,2.814,410.47092520003207,,,,,,,,,,,,,,,,,,,,,,,,,,,,,,,,,,,,,,sub-057,45.9,44.4,45.35,COM3,2025-06-19_15h59.29.560,2024_RDpaindiscrimination_maintask,2023.2.3,60.03997465390724,2025-06-19 15h59.46.466156 -0400,
0,0,0,0,8,0,8,0,,,,,,,,,,,,,413.2875444001984,,,,,,,,413.27355120005086,418.27107940008864,418.2710860001389,418.2876263000071,430.27133740019053,0,inactive,45.9,430.2714821000118,433.3905413001776,72.49999999999989,3.098,430.30460360017605,,,,,,,,,,,,,,,,,,,,,,,,,,,,,,,,,,,,,,sub-057,45.9,44.4,45.35,COM3,2025-06-19_15h59.29.560,2024_RDpaindiscrimination_maintask,2023.2.3,60.03997465390724,2025-06-19 15h59.46.466156 -0400,
0,0,0,0,9,0,9,0,,,,,,,,,,,,,433.4045127001591,,,,,,,,433.3912802000996,438.3879459002055,438.3879526001401,438.40448820008896,450.3883113001939,1,active,44.4,450.3884437000379,453.84111320017837,68.9999999999999,3.432,450.42132070008665,,,,,,,,,,,,,,,,,,,,,,,,,,,,,,,,,,,,,,sub-057,45.9,44.4,45.35,COM3,2025-06-19_15h59.29.560,2024_RDpaindiscrimination_maintask,2023.2.3,60.03997465390724,2025-06-19 15h59.46.466156 -0400,
0,0,0,0,10,0,10,0,,,,,,,,,,,,,453.8547034000512,,,,,,,,453.8418911001645,458.83822140004486,458.8382273002062,458.85475150006823,470.8385742001701,2,active,44.4,470.8387101001572,473.89020110014826,41.00000000000007,3.032,470.8715794000309,,,,,,,,,,,,,,,,,,,,,,,,,,,,,,,,,,,,,,sub-057,45.9,44.4,45.35,COM3,2025-06-19_15h59.29.560,2024_RDpaindiscrimination_maintask,2023.2.3,60.03997465390724,2025-06-19 15h59.46.466156 -0400,
0,0,0,0,11,0,11,0,,,,,,,,,,,,,473.9049606001936,,,,,,,,473.89098920021206,478.888453300111,478.88845910015516,478.9049893000629,490.888761700131,3,inactive,45.9,490.8888966999948,493.40687160007656,73.00000000000003,2.497,490.9217594000511,,,,,,,,,,,,,,,,,,,,,,,,,,,,,,,,,,,,,,sub-057,45.9,44.4,45.35,COM3,2025-06-19_15h59.29.560,2024_RDpaindiscrimination_maintask,2023.2.3,60.03997465390724,2025-06-19 15h59.46.466156 -0400,
0,0,0,0,12,0,12,0,,,,,,,,,,,,,493.42182290018536,,,,,,,,493.40764550003223,498.4054084001109,498.4054151000455,498.42191080003977,510.4057018000167,0,active,44.4,510.4058373000007,513.8576600002125,5.9999999999999964,3.431,510.43872239999473,,,,,,,,,,,,,,,,,,,,,,,,,,,,,,,,,,,,,,sub-057,45.9,44.4,45.35,COM3,2025-06-19_15h59.29.560,2024_RDpaindiscrimination_maintask,2023.2.3,60.03997465390724,2025-06-19 15h59.46.466156 -0400,
0,0,0,0,13,0,13,0,,,,,,,,,,,,,513.8720991001464,,,,,,,,513.858422400197,518.85564720002,518.8556529001798,518.8721506001893,530.8559395000339,1,inactive,45.9,530.8560951000545,535.7909727001097,79.9999999999998,4.915,530.8889473001473,,,,,,,,,,,,,,,,,,,,,,,,,,,,,,,,,,,,,,sub-057,45.9,44.4,45.35,COM3,2025-06-19_15h59.29.560,2024_RDpaindiscrimination_maintask,2023.2.3,60.03997465390724,2025-06-19 15h59.46.466156 -0400,
0,0,0,0,14,0,14,0,,,,,,,,,,,,,535.8056670001242,,,,,,,,535.791786900023,540.7892012000084,540.7892078000586,540.8056839001365,552.7894841001835,2,inactive,45.9,552.7896218001842,555.4910464000423,84.49999999999991,2.68,552.822486900026,,,,,,,,,,,,,,,,,,,,,,,,,,,,,,,,,,,,,,sub-057,45.9,44.4,45.35,COM3,2025-06-19_15h59.29.560,2024_RDpaindiscrimination_maintask,2023.2.3,60.03997465390724,2025-06-19 15h59.46.466156 -0400,
0,0,0,0,15,0,15,0,,,,,,,,,,,,,555.5058966001961,,,,,,,,555.4918457001913,560.4894334001001,560.4894390001427,560.505963700125,572.489774600137,3,active,44.4,572.4899271000177,576.0578643002082,66.99999999999991,3.548,572.5227098001633,,,,,,,,,,,,,,,,,,,,,,,,,,,,,,,,,,,,,,sub-057,45.9,44.4,45.35,COM3,2025-06-19_15h59.29.560,2024_RDpaindiscrimination_maintask,2023.2.3,60.03997465390724,2025-06-19 15h59.46.466156 -0400,
0,0,0,0,,,,,0,0,0,0,0,0,0,0,,,,,612.906682100147,,,,,,610.6070599001832,612.8900837001856,,,,,,0,active,45.9,629.8901165002026,632.7421369000804,71.49999999999993,2.832,,576.0581190001685,576.0728214001283,610.606712100096,612.8903692001477,617.890020100167,617.8900266001001,617.906542400131,629.8901087001432,,,,,,,,,,,,,,,,,,,,,,,,,,,,,,sub-057,45.9,44.4,45.35,COM3,2025-06-19_15h59.29.560,2024_RDpaindiscrimination_maintask,2023.2.3,60.03997465390724,2025-06-19 15h59.46.466156 -0400,
0,0,0,0,,,,,0,0,0,0,1,0,1,0,,,,,632.7567589001264,,,,,,,,,,,,,1,inactive,45.9,649.7406041000504,653.8422854000237,87.99999999999994,4.082,,,,,632.7428638001438,637.7402453999966,637.7402519001625,637.7568075000308,649.7405960999895,649.7736516001169,,,,,,,,,,,,,,,,,,,,,,,,,,,,,sub-057,45.9,44.4,45.35,COM3,2025-06-19_15h59.29.560,2024_RDpaindiscrimination_maintask,2023.2.3,60.03997465390724,2025-06-19 15h59.46.466156 -0400,
0,0,0,0,,,,,0,0,0,0,,,,,0,0,0,0,656.1569823001046,,,,,,,,,,,,,2,active,,,,,,,,,,,,,,,,653.8428304002155,656.1405599000864,656.1408846001141,661.1405679001473,661.1405751002021,661.1570330001414,669.140488000121,669.140488000121,672.1071658001747,672.1405030000024,672.1405030000024,672.1240064001177,3.85,4.95,385,495,8,1.2,0.75,pic-present,0,m,2.0117293000221252,None,,,,,sub-057,45.9,44.4,45.35,COM3,2025-06-19_15h59.29.560,2024_RDpaindiscrimination_maintask,2023.2.3,60.03997465390724,2025-06-19 15h59.46.466156 -0400,
0,0,0,0,,,,,0,0,0,0,,,,,1,0,1,0,672.1405030000024,,,,,,,,,,,,,3,inactive,,,,,,,,,,,,,,,,,,672.1246136000846,677.1240484002046,677.1240561001468,677.1406017001718,685.1240555001423,685.1240555001423,688.0907229001168,688.1240179000888,688.1240179000888,688.1075498000719,3.33,5.47,333,547,8,1.2,0.75,pic-present,0,m,0.8163931998424232,None,,,,,sub-057,45.9,44.4,45.35,COM3,2025-06-19_15h59.29.560,2024_RDpaindiscrimination_maintask,2023.2.3,60.03997465390724,2025-06-19 15h59.46.466156 -0400,
0,0,0,0,,,,,0,0,0,0,,,,,2,0,2,0,688.1240179000888,,,,,,,,,,,,,0,inactive,,,,,,,,,,,,,,,,,,688.1080070000608,693.107602900127,693.1076097001787,693.1241599000059,701.1075091001112,701.1075091001112,704.0742900001351,704.1076456999872,704.1076456999872,704.0911003001966,3.74,5.06,374,505,8,1.2,0.75,pic-absent,1,n,1.7377985001076013,None,,,,,sub-057,45.9,44.4,45.35,COM3,2025-06-19_15h59.29.560,2024_RDpaindiscrimination_maintask,2023.2.3,60.03997465390724,2025-06-19 15h59.46.466156 -0400,
0,0,0,0,,,,,0,0,0,0,,,,,3,0,3,0,704.1076456999872,,,,,,,,,,,,,1,active,,,,,,,,,,,,,,,,,,704.0915483999997,709.0911080001388,709.0911155000795,709.1076009001117,717.0911059000064,717.0911059000064,720.0577678000554,720.0911136001814,720.0911136001814,720.0745839001611,4.6,4.2,459,420,8,1.2,0.75,pic-present,1,n,1.21301249996759,None,,,,,sub-057,45.9,44.4,45.35,COM3,2025-06-19_15h59.29.560,2024_RDpaindiscrimination_maintask,2023.2.3,60.03997465390724,2025-06-19 15h59.46.466156 -0400,
0,0,0,0,,,,,1,0,1,0,0,0,0,0,,,,,721.7078363001347,,,,,,720.0751077001914,721.6914535001852,,,,,,2,inactive,45.9,738.6916444001254,741.8934226001147,59.999999999999936,3.182,,,,,721.6917613002006,726.6913741000462,726.6913808002137,726.7078354000114,738.6916367001832,738.7246444001794,,,,,,,,,,,,,,,,,,,,,,,,,,,,,sub-057,45.9,44.4,45.35,COM3,2025-06-19_15h59.29.560,2024_RDpaindiscrimination_maintask,2023.2.3,60.03997465390724,2025-06-19 15h59.46.466156 -0400,
0,0,0,0,,,,,1,0,1,0,1,0,1,0,,,,,741.9079970000312,,,,,,,,,,,,,3,active,45.9,758.8917939001694,761.7781072000507,85.99999999999994,2.866,,,,,741.8942009999882,746.8915700002108,746.8915765001439,746.9080862000119,758.891787200002,758.924833400175,,,,,,,,,,,,,,,,,,,,,,,,,,,,,sub-057,45.9,44.4,45.35,COM3,2025-06-19_15h59.29.560,2024_RDpaindiscrimination_maintask,2023.2.3,60.03997465390724,2025-06-19 15h59.46.466156 -0400,
0,0,0,0,,,,,1,0,1,0,,,,,0,0,0,0,764.0582723000553,,,,,,,,,,,,,0,inactive,,,,,,,,,,,,,,,,761.778678700095,764.0418202001601,764.0421073001344,769.041833100142,769.0418395001907,769.0583297000267,777.0418115002103,777.0418115002103,780.0084532999899,780.0418150001206,780.0418150001206,780.0254494000692,3.71,5.09,371,509,8,1.2,0.75,pic-absent,0,m,1.2394673998933285,None,,,,,sub-057,45.9,44.4,45.35,COM3,2025-06-19_15h59.29.560,2024_RDpaindiscrimination_maintask,2023.2.3,60.03997465390724,2025-06-19 15h59.46.466156 -0400,
0,0,0,0,,,,,1,0,1,0,,,,,1,0,1,0,780.0418150001206,,,,,,,,,,,,,1,active,,,,,,,,,,,,,,,,,,780.0259561000858,785.0253534000367,785.0253602000885,785.0419118001591,793.0253056001384,793.0253056001384,795.992016200209,796.0253421000671,796.0253421000671,796.0088223000057,4.03,4.77,403,476,8,1.2,0.75,pic-present,0,m,0.5325474001001567,None,,,,,sub-057,45.9,44.4,45.35,COM3,2025-06-19_15h59.29.560,2024_RDpaindiscrimination_maintask,2023.2.3,60.03997465390724,2025-06-19 15h59.46.466156 -0400,
0,0,0,0,,,,,1,0,1,0,,,,,2,0,2,0,796.0253421000671,,,,,,,,,,,,,2,active,,,,,,,,,,,,,,,,,,796.0092968000099,801.0088475001976,801.0088547000196,801.025397800142,809.0088367001154,809.0088367001154,811.9755271000322,812.008895700099,812.008895700099,811.9923025001772,4.34,4.46,434,446,8,1.2,0.75,pic-absent,1,n,0.7796384999528527,None,,,,,sub-057,45.9,44.4,45.35,COM3,2025-06-19_15h59.29.560,2024_RDpaindiscrimination_maintask,2023.2.3,60.03997465390724,2025-06-19 15h59.46.466156 -0400,
0,0,0,0,,,,,1,0,1,0,,,,,3,0,3,0,812.008895700099,,,,,,,,,,,,,3,inactive,,,,,,,,,,,,,,,,,,811.9927410001401,816.9923867001198,816.9923937001731,817.0089214001782,824.9923496001866,824.9923496001866,827.9591002000961,827.9923758001532,827.9923758001532,827.9758138000034,3.89,4.91,389,491,8,1.2,0.75,pic-present,0,m,0.4961123999673873,None,,,,,sub-057,45.9,44.4,45.35,COM3,2025-06-19_15h59.29.560,2024_RDpaindiscrimination_maintask,2023.2.3,60.03997465390724,2025-06-19 15h59.46.466156 -0400,
0,0,0,0,,,,,2,0,2,0,0,0,0,0,,,,,828.7090710001066,,,,,,827.9762883000076,828.6926243000198,,,,,,0,inactive,45.9,845.6927793000359,850.1773004001006,36.00000000000002,4.465,,,,,828.6929277000017,833.6924879001454,833.6924942000769,833.7090426001232,845.6927716000937,845.7257699000183,,,,,,,,,,,,,,,,,,,,,,,,,,,,,sub-057,45.9,44.4,45.35,COM3,2025-06-19_15h59.29.560,2024_RDpaindiscrimination_maintask,2023.2.3,60.03997465390724,2025-06-19 15h59.46.466156 -0400,
0,0,0,0,,,,,2,0,2,0,1,0,1,0,,,,,850.1926514001098,,,,,,,,,,,,,1,active,45.9,867.1764122000895,870.8946260001976,65.99999999999991,3.698,,,,,850.1780213001184,855.1761302000377,855.1761371002067,855.1926514999941,867.1764053001534,867.2094516002107,,,,,,,,,,,,,,,,,,,,,,,,,,,,,sub-057,45.9,44.4,45.35,COM3,2025-06-19_15h59.29.560,2024_RDpaindiscrimination_maintask,2023.2.3,60.03997465390724,2025-06-19 15h59.46.466156 -0400,
0,0,0,0,,,,,2,0,2,0,,,,,0,0,0,0,872.8260763001163,,,,,,,,,,,,,2,active,,,,,,,,,,,,,,,,870.895138700027,872.8096113000065,872.8099219000433,877.8095996000338,877.8096071002074,877.826164400205,885.8095449001994,885.8095449001994,888.7762708000373,888.8095876001753,888.8095876001753,888.7930719000287,4.21,4.59,421,459,8,1.2,0.75,pic-absent,1,n,0.9508456999901682,None,,,,,sub-057,45.9,44.4,45.35,COM3,2025-06-19_15h59.29.560,2024_RDpaindiscrimination_maintask,2023.2.3,60.03997465390724,2025-06-19 15h59.46.466156 -0400,
0,0,0,0,,,,,2,0,2,0,,,,,1,0,1,0,888.8095876001753,,,,,,,,,,,,,3,inactive,,,,,,,,,,,,,,,,,,888.793598000193,893.7931111000944,893.7931179001462,893.8096480001695,901.7930729000363,901.7930729000363,904.7597739000339,904.7931175001431,904.7931175001431,904.7765917000361,4.65,4.15,465,415,8,1.2,0.75,pic-absent,1,n,0.5030488998163491,None,,,,,sub-057,45.9,44.4,45.35,COM3,2025-06-19_15h59.29.560,2024_RDpaindiscrimination_maintask,2023.2.3,60.03997465390724,2025-06-19 15h59.46.466156 -0400,
0,0,0,0,,,,,2,0,2,0,,,,,2,0,2,0,904.7931175001431,,,,,,,,,,,,,0,active,,,,,,,,,,,,,,,,,,904.7771540000103,909.7766640000045,909.776670700172,909.7932454000693,917.7766688000411,917.7766688000411,920.7434085002169,920.7767402001191,920.7767402001191,920.7601824000012,3.26,5.54,326,554,8,1.2,0.75,pic-present,0,m,0.5478370999917388,None,,,,,sub-057,45.9,44.4,45.35,COM3,2025-06-19_15h59.29.560,2024_RDpaindiscrimination_maintask,2023.2.3,60.03997465390724,2025-06-19 15h59.46.466156 -0400,
0,0,0,0,,,,,2,0,2,0,,,,,3,0,3,0,920.7767402001191,,,,,,,,,,,,,1,inactive,,,,,,,,,,,,,,,,,,920.7606290001422,925.7602223001886,925.7602291000076,925.7767541001085,933.7602655000519,933.7602655000519,936.7269409000874,936.7602109999862,936.7602109999862,936.7437098000664,3.42,5.38,342,538,8,1.2,0.75,pic-absent,1,n,0.597332299919799,None,,,,,sub-057,45.9,44.4,45.35,COM3,2025-06-19_15h59.29.560,2024_RDpaindiscrimination_maintask,2023.2.3,60.03997465390724,2025-06-19 15h59.46.466156 -0400,
0,0,0,0,,,,,3,0,3,0,0,0,0,0,,,,,938.4102743000258,,,,,,936.7441842001863,938.3938251000363,,,,,,2,active,45.9,955.3940644001123,959.8127035000362,90.99999999999994,4.398,,,,,938.3941311000381,943.3937507001683,943.393757800106,943.4102861001156,955.3940568000544,955.4271271000616,,,,,,,,,,,,,,,,,,,,,,,,,,,,,sub-057,45.9,44.4,45.35,COM3,2025-06-19_15h59.29.560,2024_RDpaindiscrimination_maintask,2023.2.3,60.03997465390724,2025-06-19 15h59.46.466156 -0400,
0,0,0,0,,,,,3,0,3,0,1,0,1,0,,,,,959.8272616001777,,,,,,,,,,,,,3,inactive,45.9,976.8109938001726,982.062016800046,82.49999999999983,5.23,,,,,959.8134979000315,964.810669900151,964.8106761001982,964.8271989000496,976.8109862999991,976.8440114001278,,,,,,,,,,,,,,,,,,,,,,,,,,,,,sub-057,45.9,44.4,45.35,COM3,2025-06-19_15h59.29.560,2024_RDpaindiscrimination_maintask,2023.2.3,60.03997465390724,2025-06-19 15h59.46.466156 -0400,
0,0,0,0,,,,,3,0,3,0,,,,,0,0,0,0,983.7440877000336,,,,,,,,,,,,,0,inactive,,,,,,,,,,,,,,,,982.0625255000778,983.727679700125,983.7279960000888,988.727589600021,988.72759650019,988.7442439000588,996.727534300182,996.727534300182,999.6942607001401,999.7276271001901,999.7276271001901,999.7110848000739,3.94,4.86,394,486,8,1.2,0.75,pic-present,0,m,0.6293302001431584,None,,,,,sub-057,45.9,44.4,45.35,COM3,2025-06-19_15h59.29.560,2024_RDpaindiscrimination_maintask,2023.2.3,60.03997465390724,2025-06-19 15h59.46.466156 -0400,
0,0,0,0,,,,,3,0,3,0,,,,,1,0,1,0,999.7276271001901,,,,,,,,,,,,,1,active,,,,,,,,,,,,,,,,,,999.7116258000024,1004.711166900117,1004.71117340005,1004.7276893001981,1012.7111168000847,1012.7111168000847,1015.6777160000056,1015.7110427999869,1015.7110427999869,1015.6945260001812,4.52,4.28,451,428,8,1.2,0.75,pic-absent,1,n,0.5210632001981139,None,,,,,sub-057,45.9,44.4,45.35,COM3,2025-06-19_15h59.29.560,2024_RDpaindiscrimination_maintask,2023.2.3,60.03997465390724,2025-06-19 15h59.46.466156 -0400,
0,0,0,0,,,,,3,0,3,0,,,,,2,0,2,0,1015.7110427999869,,,,,,,,,,,,,2,inactive,,,,,,,,,,,,,,,,,,1015.6949668000452,1020.6947157999966,1020.6947227001656,1020.7112720999867,1028.69464420015,1028.69464420015,1031.6613353001885,1031.6947098001838,1031.6947098001838,1031.6781466000248,4.63,4.17,463,417,8,1.2,0.75,pic-present,0,m,0.8895950000733137,None,,,,,sub-057,45.9,44.4,45.35,COM3,2025-06-19_15h59.29.560,2024_RDpaindiscrimination_maintask,2023.2.3,60.03997465390724,2025-06-19 15h59.46.466156 -0400,
0,0,0,0,,,,,3,0,3,0,,,,,3,0,3,0,1031.6947098001838,,,,,,,,,,,,,3,active,,,,,,,,,,,,,,,,,,1031.678591000149,1036.6781688001938,1036.6781755001284,1036.6946302000433,1044.678200500086,1044.678200500086,1047.6448060001712,1047.6781304001343,1047.6781304001343,1047.661640000064,4.61,4.19,461,419,8,1.2,0.75,pic-absent,0,m,0.5500109998974949,None,,,,,sub-057,45.9,44.4,45.35,COM3,2025-06-19_15h59.29.560,2024_RDpaindiscrimination_maintask,2023.2.3,60.03997465390724,2025-06-19 15h59.46.466156 -0400,
1,0,1,0,0,0,0,0,,,,,,,,,,,,,1073.945136200171,,,,1072.3789157001302,1073.528763400158,1073.5287710002158,1073.9287845999934,1073.929070000071,1078.9286434000824,1078.928649800131,1078.9451987000648,1090.9290679001715,0,active,44.4,1090.9292743999977,1095.0636432000902,37.500000000000014,4.111,1090.9619960000273,,,,,,,,,,,,,,,,,,,,,,,,,,,,,,,,,,1047.6620815000497,1072.3787929001264,,,sub-057,45.9,44.4,45.35,COM3,2025-06-19_15h59.29.560,2024_RDpaindiscrimination_maintask,2023.2.3,60.03997465390724,2025-06-19 15h59.46.466156 -0400,
1,0,1,0,1,0,1,0,,,,,,,,,,,,,1095.0788032000419,,,,,,,,1095.0645062001422,1100.0621631001122,1100.0621688000392,1100.0788041001651,1112.0626421000343,1,inactive,45.9,1112.0627820000518,1115.215008100029,59.500000000000036,3.132,1112.0955922000576,,,,,,,,,,,,,,,,,,,,,,,,,,,,,,,,,,,,,,sub-057,45.9,44.4,45.35,COM3,2025-06-19_15h59.29.560,2024_RDpaindiscrimination_maintask,2023.2.3,60.03997465390724,2025-06-19 15h59.46.466156 -0400,
1,0,1,0,2,0,2,0,,,,,,,,,,,,,1115.2290463000536,,,,,,,,1115.2157724001445,1120.2125002001412,1120.2125061000697,1120.229066700209,1132.2128420001827,2,active,44.4,1132.212995100068,1135.5310311000794,44.999999999999986,3.298,1132.2458531002048,,,,,,,,,,,,,,,,,,,,,,,,,,,,,,,,,,,,,,sub-057,45.9,44.4,45.35,COM3,2025-06-19_15h59.29.560,2024_RDpaindiscrimination_maintask,2023.2.3,60.03997465390724,2025-06-19 15h59.46.466156 -0400,
1,0,1,0,3,0,3,0,,,,,,,,,,,,,1135.5458802999929,,,,,,,,1135.531826700084,1140.52936340007,1140.5293696001172,1140.545908200089,1152.5296795000322,3,active,44.4,1152.5298205001745,1156.3143421001732,53.49999999999996,3.765,1152.5627627000213,,,,,,,,,,,,,,,,,,,,,,,,,,,,,,,,,,,,,,sub-057,45.9,44.4,45.35,COM3,2025-06-19_15h59.29.560,2024_RDpaindiscrimination_maintask,2023.2.3,60.03997465390724,2025-06-19 15h59.46.466156 -0400,
1,0,1,0,4,0,4,0,,,,,,,,,,,,,1156.3295342000201,,,,,,,,1156.3151308000088,1161.3129602000117,1161.3129663001746,1161.3294673000928,1173.3133014000487,0,inactive,45.9,1173.313437800156,1177.364530700026,67.49999999999987,4.031,1173.3463415000588,,,,,,,,,,,,,,,,,,,,,,,,,,,,,,,,,,,,,,sub-057,45.9,44.4,45.35,COM3,2025-06-19_15h59.29.560,2024_RDpaindiscrimination_maintask,2023.2.3,60.03997465390724,2025-06-19 15h59.46.466156 -0400,
1,0,1,0,5,0,5,0,,,,,,,,,,,,,1177.3798238001764,,,,,,,,1177.365306199994,1182.3632042000536,1182.3632097002119,1182.3797405001242,1194.3635889000725,1,inactive,45.9,1194.363726900192,1197.7486769000534,83.49999999999997,3.364,1194.3965865001082,,,,,,,,,,,,,,,,,,,,,,,,,,,,,,,,,,,,,,sub-057,45.9,44.4,45.35,COM3,2025-06-19_15h59.29.560,2024_RDpaindiscrimination_maintask,2023.2.3,60.03997465390724,2025-06-19 15h59.46.466156 -0400,
1,0,1,0,6,0,6,0,,,,,,,,,,,,,1197.7632973000873,,,,,,,,1197.7494396001566,1202.7468280000612,1202.74683440011,1202.7633175000083,1214.7470580001827,2,active,44.4,1214.747210700065,1217.7661554000806,51.49999999999997,2.999,1214.780084400205,,,,,,,,,,,,,,,,,,,,,,,,,,,,,,,,,,,,,,sub-057,45.9,44.4,45.35,COM3,2025-06-19_15h59.29.560,2024_RDpaindiscrimination_maintask,2023.2.3,60.03997465390724,2025-06-19 15h59.46.466156 -0400,
1,0,1,0,7,0,7,0,,,,,,,,,,,,,1217.7802232000977,,,,,,,,1217.7669340001885,1222.7636035000905,1222.7636102000251,1222.7802045000717,1234.7642485999968,3,inactive,45.9,1234.764392600162,1237.73263650015,93.50000000000016,2.948,1234.7974011001643,,,,,,,,,,,,,,,,,,,,,,,,,,,,,,,,,,,,,,sub-057,45.9,44.4,45.35,COM3,2025-06-19_15h59.29.560,2024_RDpaindiscrimination_maintask,2023.2.3,60.03997465390724,2025-06-19 15h59.46.466156 -0400,
1,0,1,0,8,0,8,0,,,,,,,,,,,,,1237.747103900183,,,,,,,,1237.7334675001912,1242.730533100199,1242.7305391000118,1242.7470770000946,1254.7308734001126,0,inactive,45.9,1254.7310122000054,1257.3655724001583,40.00000000000007,2.614,1254.7639660001732,,,,,,,,,,,,,,,,,,,,,,,,,,,,,,,,,,,,,,sub-057,45.9,44.4,45.35,COM3,2025-06-19_15h59.29.560,2024_RDpaindiscrimination_maintask,2023.2.3,60.03997465390724,2025-06-19 15h59.46.466156 -0400,
1,0,1,0,9,0,9,0,,,,,,,,,,,,,1257.380682400195,,,,,,,,1257.3663690001704,1262.3640901001636,1262.364096000092,1262.3806583001278,1274.3645335000474,1,active,44.4,1274.36467190017,1278.2661754,47.99999999999991,3.881,1274.397525300039,,,,,,,,,,,,,,,,,,,,,,,,,,,,,,,,,,,,,,sub-057,45.9,44.4,45.35,COM3,2025-06-19_15h59.29.560,2024_RDpaindiscrimination_maintask,2023.2.3,60.03997465390724,2025-06-19 15h59.46.466156 -0400,
1,0,1,0,10,0,10,0,,,,,,,,,,,,,1278.280900800135,,,,,,,,1278.2669400000013,1283.2644976000302,1283.2645038000774,1283.2809571002144,1295.2648020000197,2,inactive,45.9,1295.2649389000144,1298.1326021000277,70.00000000000003,2.847,1295.297752500046,,,,,,,,,,,,,,,,,,,,,,,,,,,,,,,,,,,,,,sub-057,45.9,44.4,45.35,COM3,2025-06-19_15h59.29.560,2024_RDpaindiscrimination_maintask,2023.2.3,60.03997465390724,2025-06-19 15h59.46.466156 -0400,
1,0,1,0,11,0,11,0,,,,,,,,,,,,,1298.147808600217,,,,,,,,1298.1333434002008,1303.1313277001027,1303.1313345001545,1303.1478512000758,1315.1315544000827,3,inactive,45.9,1315.1316937000956,1317.8502392000519,67.49999999999994,2.698,1315.1645487002097,,,,,,,,,,,,,,,,,,,,,,,,,,,,,,,,,,,,,,sub-057,45.9,44.4,45.35,COM3,2025-06-19_15h59.29.560,2024_RDpaindiscrimination_maintask,2023.2.3,60.03997465390724,2025-06-19 15h59.46.466156 -0400,
1,0,1,0,12,0,12,0,,,,,,,,,,,,,1317.8646931000985,,,,,,,,1317.8509810001124,1322.8482391000725,1322.8482455001213,1322.8647437000182,1334.84856640012,0,active,44.4,1334.848710700171,1338.6502661001869,38.000000000000014,3.782,1334.8815876001026,,,,,,,,,,,,,,,,,,,,,,,,,,,,,,,,,,,,,,sub-057,45.9,44.4,45.35,COM3,2025-06-19_15h59.29.560,2024_RDpaindiscrimination_maintask,2023.2.3,60.03997465390724,2025-06-19 15h59.46.466156 -0400,
1,0,1,0,13,0,13,0,,,,,,,,,,,,,1338.6649627001025,,,,,,,,1338.6510811999906,1343.6483476001304,1343.648354300065,1343.66486670007,1355.6487183000427,1,active,44.4,1355.6488564000465,1358.9500781001989,57.499999999999936,3.193,1355.7650494000409,,,,,,,,,,,,,,,,,,,,,,,,,,,,,,,,,,,,,,sub-057,45.9,44.4,45.35,COM3,2025-06-19_15h59.29.560,2024_RDpaindiscrimination_maintask,2023.2.3,60.03997465390724,2025-06-19 15h59.46.466156 -0400,
1,0,1,0,14,0,14,0,,,,,,,,,,,,,1358.9651005000342,,,,,,,,1358.9508558001835,1363.9485772000626,1363.9485836001113,1363.9651040001772,1375.9489561000373,2,inactive,45.9,1375.9490962000564,1379.1179302001838,85.99999999999994,3.148,1375.9819169000257,,,,,,,,,,,,,,,,,,,,,,,,,,,,,,,,,,,,,,sub-057,45.9,44.4,45.35,COM3,2025-06-19_15h59.29.560,2024_RDpaindiscrimination_maintask,2023.2.3,60.03997465390724,2025-06-19 15h59.46.466156 -0400,
1,0,1,0,15,0,15,0,,,,,,,,,,,,,1379.1320807000156,,,,,,,,1379.1183311000932,1384.1155685000122,1384.115574900061,1384.132127400022,1396.1159320001025,3,active,44.4,1396.1160697001033,1398.7846910001244,19.000000000000107,2.648,1396.1489252001047,,,,,,,,,,,,,,,,,,,,,,,,,,,,,,,,,,,,,,sub-057,45.9,44.4,45.35,COM3,2025-06-19_15h59.29.560,2024_RDpaindiscrimination_maintask,2023.2.3,60.03997465390724,2025-06-19 15h59.46.466156 -0400,
1,0,1,0,,,,,0,0,0,0,0,0,0,0,,,,,1403.8322245001327,,,,,,1401.8162642000243,1403.8158168999944,,,,,,0,inactive,45.9,1420.8161029000767,1423.900873400038,60.99999999999996,3.065,,1398.7852441000286,1398.798845600104,1401.8159237001091,1403.816099600168,1408.815875200089,1408.815882400144,1408.8324115001597,1420.8160953000188,1420.8491734000854,,,,,,,,,,,,,,,,,,,,,,,,,,,,,sub-057,45.9,44.4,45.35,COM3,2025-06-19_15h59.29.560,2024_RDpaindiscrimination_maintask,2023.2.3,60.03997465390724,2025-06-19 15h59.46.466156 -0400,
1,0,1,0,,,,,0,0,0,0,1,0,1,0,,,,,1423.9158448001835,,,,,,,,,,,,,1,active,45.9,1440.8997485002037,1443.7848987001926,73.49999999999989,2.864,,,,,1423.9016351001337,1428.8994750001002,1428.899481800152,1428.9159364001825,1440.8997414000332,1440.9327518001664,,,,,,,,,,,,,,,,,,,,,,,,,,,,,sub-057,45.9,44.4,45.35,COM3,2025-06-19_15h59.29.560,2024_RDpaindiscrimination_maintask,2023.2.3,60.03997465390724,2025-06-19 15h59.46.466156 -0400,
1,0,1,0,,,,,0,0,0,0,,,,,0,0,0,0,1445.399372600019,,,,,,,,,,,,,2,active,,,,,,,,,,,,,,,,1443.785411800025,1445.3829638999887,1445.3832821000833,1450.382961000083,1450.3829677000176,1450.3994594002143,1458.382933899993,1458.382933899993,1461.3496384001337,1461.3829746001866,1461.3829746001866,1461.3664642001968,3.28,5.52,328,552,8,1.2,0.75,pic-present,0,m,1.250389600172639,None,,,,,sub-057,45.9,44.4,45.35,COM3,2025-06-19_15h59.29.560,2024_RDpaindiscrimination_maintask,2023.2.3,60.03997465390724,2025-06-19 15h59.46.466156 -0400,
1,0,1,0,,,,,0,0,0,0,,,,,1,0,1,0,1461.3829746001866,,,,,,,,,,,,,3,inactive,,,,,,,,,,,,,,,,,,1461.367065800121,1466.3665086000692,1466.3665157000069,1466.383038900094,1474.366375700105,1474.366375700105,1477.3330819001421,1477.3664644001983,1477.3664644001983,1477.3499037001748,3.75,5.05,375,505,8,1.2,0.75,pic-present,0,m,0.8625519999768585,None,,,,,sub-057,45.9,44.4,45.35,COM3,2025-06-19_15h59.29.560,2024_RDpaindiscrimination_maintask,2023.2.3,60.03997465390724,2025-06-19 15h59.46.466156 -0400,
1,0,1,0,,,,,0,0,0,0,,,,,2,0,2,0,1477.3664644001983,,,,,,,,,,,,,0,active,,,,,,,,,,,,,,,,,,1477.3503984001,1482.350009500049,1482.3500171999913,1482.3664740000386,1490.3500077000353,1490.3500077000353,1493.3166726999916,1493.3499589001294,1493.3499589001294,1493.3334473001305,4.33,4.47,433,447,8,1.2,0.75,pic-absent,0,m,0.5349824000149965,None,,,,,sub-057,45.9,44.4,45.35,COM3,2025-06-19_15h59.29.560,2024_RDpaindiscrimination_maintask,2023.2.3,60.03997465390724,2025-06-19 15h59.46.466156 -0400,
1,0,1,0,,,,,0,0,0,0,,,,,3,0,3,0,1493.3499589001294,,,,,,,,,,,,,1,active,,,,,,,,,,,,,,,,,,1493.3339239000343,1498.3334759001154,1498.3334831001703,1498.3501281000208,1506.3334500000346,1506.3334500000346,1509.3001493001357,1509.333489100216,1509.333489100216,1509.316958000185,4.28,4.52,428,451,8,1.2,0.75,pic-present,1,n,0.7870281999930739,None,,,,,sub-057,45.9,44.4,45.35,COM3,2025-06-19_15h59.29.560,2024_RDpaindiscrimination_maintask,2023.2.3,60.03997465390724,2025-06-19 15h59.46.466156 -0400,
1,0,1,0,,,,,1,0,1,0,0,0,0,0,,,,,1510.7835136000067,,,,,,1509.3174474001862,1510.767041400075,,,,,,2,active,45.9,1527.7674022000283,1531.218631700147,70.99999999999989,3.431,,,,,1510.7673272001557,1515.7670797000173,1515.7670869000722,1515.7835549002048,1527.7673942002002,1527.8004084001295,,,,,,,,,,,,,,,,,,,,,,,,,,,,,sub-057,45.9,44.4,45.35,COM3,2025-06-19_15h59.29.560,2024_RDpaindiscrimination_maintask,2023.2.3,60.03997465390724,2025-06-19 15h59.46.466156 -0400,
1,0,1,0,,,,,1,0,1,0,1,0,1,0,,,,,1531.2338062000927,,,,,,,,,,,,,3,inactive,45.9,1548.2175735000055,1552.4354042001069,87.49999999999989,4.198,,,,,1531.2194058999885,1536.2173464000225,1536.217353500193,1536.2338694001082,1548.2175664000679,1548.2505958999973,,,,,,,,,,,,,,,,,,,,,,,,,,,,,sub-057,45.9,44.4,45.35,COM3,2025-06-19_15h59.29.560,2024_RDpaindiscrimination_maintask,2023.2.3,60.03997465390724,2025-06-19 15h59.46.466156 -0400,
1,0,1,0,,,,,1,0,1,0,,,,,0,0,0,0,1554.0339482000563,,,,,,,,,,,,,0,inactive,,,,,,,,,,,,,,,,1552.4359438000247,1554.0175799001008,1554.0178889001254,1559.017523800023,1559.01753000007,1559.0340247000568,1567.0175324000884,1567.0175324000884,1569.9841448001098,1570.0174897999968,1570.0174897999968,1570.0010983000975,4.33,4.47,433,447,8,1.2,0.75,pic-present,0,m,0.9679288999177516,None,,,,,sub-057,45.9,44.4,45.35,COM3,2025-06-19_15h59.29.560,2024_RDpaindiscrimination_maintask,2023.2.3,60.03997465390724,2025-06-19 15h59.46.466156 -0400,
1,0,1,0,,,,,1,0,1,0,,,,,1,0,1,0,1570.0174897999968,,,,,,,,,,,,,1,active,,,,,,,,,,,,,,,,,,1570.001664899988,1575.0009910000954,1575.00099770003,1575.0175310000777,1583.0009167001117,1583.0009167001117,1585.9677438000217,1586.000993499998,1586.000993499998,1585.9844717001542,4.31,4.49,430,449,8,1.2,0.75,pic-absent,0,m,1.0881525001022965,None,,,,,sub-057,45.9,44.4,45.35,COM3,2025-06-19_15h59.29.560,2024_RDpaindiscrimination_maintask,2023.2.3,60.03997465390724,2025-06-19 15h59.46.466156 -0400,
1,0,1,0,,,,,1,0,1,0,,,,,2,0,2,0,1586.000993499998,,,,,,,,,,,,,2,inactive,,,,,,,,,,,,,,,,,,1585.9849141000304,1590.9845562002156,1590.9845633001532,1591.001157300081,1598.9845615001395,1598.9845615001395,1601.9512299001217,1601.9845503000543,1601.9845503000543,1601.967994300183,4.0,4.8,400,480,8,1.2,0.75,pic-absent,1,n,0.8041435999330133,None,,,,,sub-057,45.9,44.4,45.35,COM3,2025-06-19_15h59.29.560,2024_RDpaindiscrimination_maintask,2023.2.3,60.03997465390724,2025-06-19 15h59.46.466156 -0400,
1,0,1,0,,,,,1,0,1,0,,,,,3,0,3,0,1601.9845503000543,,,,,,,,,,,,,3,inactive,,,,,,,,,,,,,,,,,,1601.9684478000272,1606.9680230000522,1606.968029500218,1606.9845669001807,1614.968023300171,1614.968023300171,1617.9346899001393,1617.968102300074,1617.968102300074,1617.951512400061,4.12,4.68,412,468,8,1.2,0.75,pic-present,1,n,0.8769371998496354,None,,,,,sub-057,45.9,44.4,45.35,COM3,2025-06-19_15h59.29.560,2024_RDpaindiscrimination_maintask,2023.2.3,60.03997465390724,2025-06-19 15h59.46.466156 -0400,
1,0,1,0,,,,,2,0,2,0,0,0,0,0,,,,,1619.0180377000943,,,,,,1617.9519938000012,1619.0016964001115,,,,,,0,active,45.9,1636.001941200113,1639.7884949999861,65.49999999999991,3.766,,,,,1619.0019796001725,1624.001609500032,1624.0016161000822,1624.0181356000248,1636.0019334000535,1636.034932100214,,,,,,,,,,,,,,,,,,,,,,,,,,,,,sub-057,45.9,44.4,45.35,COM3,2025-06-19_15h59.29.560,2024_RDpaindiscrimination_maintask,2023.2.3,60.03997465390724,2025-06-19 15h59.46.466156 -0400,
1,0,1,0,,,,,2,0,2,0,1,0,1,0,,,,,1639.8018033001572,,,,,,,,,,,,,1,inactive,45.9,1656.7854615000542,1658.6209482999984,92.00000000000017,1.816,,,,,1639.7892745002173,1644.7851686000358,1644.7851753002033,1644.80175470002,1656.7854540999979,1656.8185804001987,,,,,,,,,,,,,,,,,,,,,,,,,,,,,sub-057,45.9,44.4,45.35,COM3,2025-06-19_15h59.29.560,2024_RDpaindiscrimination_maintask,2023.2.3,60.03997465390724,2025-06-19 15h59.46.466156 -0400,
1,0,1,0,,,,,2,0,2,0,,,,,0,0,0,0,1660.618602000177,,,,,,,,,,,,,2,active,,,,,,,,,,,,,,,,1658.6214552000165,1660.6021031001583,1660.6024138000794,1665.6020771001931,1665.602083500009,1665.618615400046,1673.6021616000216,1673.6021616000216,1676.5687504000962,1676.6020757001825,1676.6020757001825,1676.585625300184,3.91,4.89,391,488,8,1.2,0.75,pic-absent,1,n,0.6580091000068933,None,,,,,sub-057,45.9,44.4,45.35,COM3,2025-06-19_15h59.29.560,2024_RDpaindiscrimination_maintask,2023.2.3,60.03997465390724,2025-06-19 15h59.46.466156 -0400,
1,0,1,0,,,,,2,0,2,0,,,,,1,0,1,0,1676.6020757001825,,,,,,,,,,,,,3,inactive,,,,,,,,,,,,,,,,,,1676.5861749001779,1681.5856199001428,1681.585627200082,1681.602134700166,1689.5855584000237,1689.5855584000237,1692.5523380001541,1692.5856683000457,1692.5856683000457,1692.5692013001535,4.15,4.65,415,465,8,1.2,0.75,pic-absent,1,n,0.6227044998668134,None,,,,,sub-057,45.9,44.4,45.35,COM3,2025-06-19_15h59.29.560,2024_RDpaindiscrimination_maintask,2023.2.3,60.03997465390724,2025-06-19 15h59.46.466156 -0400,
1,0,1,0,,,,,2,0,2,0,,,,,2,0,2,0,1692.5856683000457,,,,,,,,,,,,,0,active,,,,,,,,,,,,,,,,,,1692.5696421000175,1697.5691147001926,1697.5691216001287,1697.5857459001709,1705.5690648001619,1705.5690648001619,1708.5358499002177,1708.569226599997,1708.569226599997,1708.5527042001486,3.54,5.26,354,526,8,1.2,0.75,pic-present,0,m,0.6953642999287695,None,,,,,sub-057,45.9,44.4,45.35,COM3,2025-06-19_15h59.29.560,2024_RDpaindiscrimination_maintask,2023.2.3,60.03997465390724,2025-06-19 15h59.46.466156 -0400,
1,0,1,0,,,,,2,0,2,0,,,,,3,0,3,0,1708.569226599997,,,,,,,,,,,,,1,active,,,,,,,,,,,,,,,,,,1708.553200100083,1713.5527020001318,1713.5527094001882,1713.5692994000856,1721.552628400037,1721.552628400037,1724.5193702001125,1724.5527358001564,1724.5527358001564,1724.536183200078,4.29,4.51,429,451,8,1.2,0.75,pic-absent,1,n,0.779947399860248,None,,,,,sub-057,45.9,44.4,45.35,COM3,2025-06-19_15h59.29.560,2024_RDpaindiscrimination_maintask,2023.2.3,60.03997465390724,2025-06-19 15h59.46.466156 -0400,
1,0,1,0,,,,,3,0,3,0,0,0,0,0,,,,,1726.0693555001635,,,,,,1724.5366550001781,1726.0528656002134,,,,,,2,inactive,45.9,1743.0529655001592,1746.9887638001237,88.49999999999994,3.915,,,,,1726.0531642001588,1731.052904700162,1731.0529115002137,1731.0694499001838,1743.0529572002124,,,,,,,,,,,,,,,,,,,,,,,,,,,,,,sub-057,45.9,44.4,45.35,COM3,2025-06-19_15h59.29.560,2024_RDpaindiscrimination_maintask,2023.2.3,60.03997465390724,2025-06-19 15h59.46.466156 -0400,
1,0,1,0,,,,,3,0,3,0,1,0,1,0,,,,,1747.0029823000077,,,,,,,,,,,,,3,active,45.9,1763.9867847000714,1767.0389376000967,95.00000000000017,3.032,,,,,1746.9895587000065,1751.9864909001626,1751.9864978000987,1752.0030507000629,1763.9867776001338,1764.01976689999,,,,,,,,,,,,,,,,,,,,,,,,,,,,,sub-057,45.9,44.4,45.35,COM3,2025-06-19_15h59.29.560,2024_RDpaindiscrimination_maintask,2023.2.3,60.03997465390724,2025-06-19 15h59.46.466156 -0400,
1,0,1,0,,,,,3,0,3,0,,,,,0,0,0,0,1768.7864316001069,,,,,,,,,,,,,0,inactive,,,,,,,,,,,,,,,,1767.039498400176,1768.7700047001708,1768.7703077001497,1773.7699541000184,1773.7699612001888,1773.7864906000905,1781.769962000195,1781.769962000195,1784.7366955000907,1784.7699612001888,1784.7699612001888,1784.7535142002162,3.62,5.18,362,518,8,1.2,0.75,pic-absent,0,m,0.8348360999953002,None,,,,,sub-057,45.9,44.4,45.35,COM3,2025-06-19_15h59.29.560,2024_RDpaindiscrimination_maintask,2023.2.3,60.03997465390724,2025-06-19 15h59.46.466156 -0400,
1,0,1,0,,,,,3,0,3,0,,,,,1,0,1,0,1784.7699612001888,,,,,,,,,,,,,1,active,,,,,,,,,,,,,,,,,,1784.754029800184,1789.75354960002,1789.753556500189,1789.7700772001408,1797.753433600068,1797.753433600068,1800.7201343001798,1800.7534730001353,1800.7534730001353,1800.7370069001336,3.99,4.81,399,480,8,1.2,0.75,pic-present,1,n,1.1954203001223505,None,,,,,sub-057,45.9,44.4,45.35,COM3,2025-06-19_15h59.29.560,2024_RDpaindiscrimination_maintask,2023.2.3,60.03997465390724,2025-06-19 15h59.46.466156 -0400,
1,0,1,0,,,,,3,0,3,0,,,,,2,0,2,0,1800.7534730001353,,,,,,,,,,,,,2,inactive,,,,,,,,,,,,,,,,,,1800.7374621001072,1805.7370110000484,1805.7370177002158,1805.7535312999971,1813.737049400108,1813.737049400108,1816.7037676000036,1816.7370905000716,1816.7370905000716,1816.720583199989,4.06,4.74,405,474,8,1.2,0.75,pic-present,0,m,1.0713396000210196,None,,,,,sub-057,45.9,44.4,45.35,COM3,2025-06-19_15h59.29.560,2024_RDpaindiscrimination_maintask,2023.2.3,60.03997465390724,2025-06-19 15h59.46.466156 -0400,
1,0,1,0,,,,,3,0,3,0,,,,,3,0,3,0,1816.7370905000716,,,,,,,,,,,,,3,inactive,,,,,,,,,,,,,,,,,,1816.721040100092,1821.7205118001439,1821.720519100083,1821.7370458000805,1829.7205891001504,1829.7205891001504,1832.6873438002076,1832.7206326001324,1832.7206326001324,1832.704105900135,4.17,4.63,417,463,8,1.2,0.75,pic-absent,0,m,0.7435974001418799,None,,,,,sub-057,45.9,44.4,45.35,COM3,2025-06-19_15h59.29.560,2024_RDpaindiscrimination_maintask,2023.2.3,60.03997465390724,2025-06-19 15h59.46.466156 -0400,
,,,,,,,,,,,,,,,,,,,,,,,,,,,,,,,,,,,,,,,,,,,,,,,,,,,,,,,,,,,,,,,,,,,,,,,,,,1832.7045776001178,1834.4042274001986,1834.404247700004,1844.4041212000884,,,,,,,,,,,
