trials.thisRepN,trials.thisTrialN,trials.thisN,trials.thisIndex,loop_test.thisRepN,loop_test.thisTrialN,loop_test.thisN,loop_test.thisIndex,loop_eval_discri.thisRepN,loop_eval_discri.thisTrialN,loop_eval_discri.thisN,loop_eval_discri.thisIndex,loop_eval.thisRepN,loop_eval.thisTrialN,loop_eval.thisN,loop_eval.thisIndex,loop_discri.thisRepN,loop_discri.thisTrialN,loop_discri.thisN,loop_discri.thisIndex,thisRow.t,notes,Set_up.started,Set_up.stopped,electrode_check.started,electrode_check.stopped,instructions_eval.started,instructions_eval.stopped,pause_5_test.started,pause_5_test.stopped,Phase_Test.started,thermode_locali.started,Phase_Test.stopped,loca_thermode,condition,temp_trial_sent,eval_douleur.started,eval_douleur.stopped,ratingScale.response,ratingScale.rt,thermode_locali.stopped,Fin_test.started,text.started,Fin_test.stopped,pause_5_EVA.started,pause_5_EVA.stopped,tâche_EVA.started,thermode_locali_EVA.started,thermode_locali_EVA.stopped,tâche_EVA.stopped,instructions_discrim.started,instructions_discrim.stopped,pause_5_pic.started,pause_5_pic.stopped,tâche_PIC.started,thermode_locali_pic.started,percu_or.started,responser.started,thermode_locali_pic.stopped,percu_or.stopped,responser.stopped,tâche_PIC.stopped,dur_plateau1,dur_plateau2,dur_plateau1_sent,dur_plateau2_sent,start_plateau_2_resp,dur_pic,dur_rise,pic_presence,pic_response,discrimin_resp.keys,discrimin_resp.rt,discrimin_resp.duration,break_entre_bloc.started,break_entre_bloc.stopped,merci.started,merci.stopped,participant,temp_flat,temp_active,temp_pic_set,com_thermode,date,expName,psychopyVersion,frameRate,expStart,
0,0,0,0,0,0,0,0,,,,,,,,,,,,,223.28785980003886,,0.0020252999966032803,194.25450099998852,194.25485080003273,196.00451910000993,196.0045264000073,223.25485900003696,223.25515109999105,228.2713413000456,228.27134690003004,228.28798900003312,240.27139350003563,0,active,41.2,240.2716323999921,244.17441690003034,25.000000000000018,3.879,,,,,,,,,,,,,,,,,,,,,,,,,,,,,,,,,,,,,,,sub-062,42.9,41.2,43.7,COM3,2025-08-04_13h35.39.063,2024_RDpaindiscrimination_maintask,2023.2.3,59.98109394789935,2025-08-04 13h35.54.151230 -0400,
0,0,0,0,1,0,1,0,,,,,,,,,,,,,244.18831659998978,,,,,,,,244.17528389999643,249.1716810000362,249.1716869000229,249.18821880000178,261.17200170003343,1,inactive,42.9,261.1721379000228,264.9568232000456,43.99999999999995,3.764,261.20502029999625,,,,,,,,,,,,,,,,,,,,,,,,,,,,,,,,,,,,,,sub-062,42.9,41.2,43.7,COM3,2025-08-04_13h35.39.063,2024_RDpaindiscrimination_maintask,2023.2.3,59.98109394789935,2025-08-04 13h35.54.151230 -0400,
0,0,0,0,2,0,2,0,,,,,,,,,,,,,264.97167500003707,,,,,,,,264.9575901000062,269.95528699998977,269.95529280003393,269.971789000032,281.9555578000145,2,active,41.2,281.9556942000054,284.12445220001973,10.0,2.149,281.9885869999998,,,,,,,,,,,,,,,,,,,,,,,,,,,,,,,,,,,,,,sub-062,42.9,41.2,43.7,COM3,2025-08-04_13h35.39.063,2024_RDpaindiscrimination_maintask,2023.2.3,59.98109394789935,2025-08-04 13h35.54.151230 -0400,
0,0,0,0,3,0,3,0,,,,,,,,,,,,,284.13863659999333,,,,,,,,284.125214700005,289.1220462000347,289.12205190001987,289.13858970004367,301.1224554000073,3,active,41.2,301.12259740004083,304.42496640002355,25.49999999999998,3.283,301.15542690001894,,,,,,,,,,,,,,,,,,,,,,,,,,,,,,,,,,,,,,sub-062,42.9,41.2,43.7,COM3,2025-08-04_13h35.39.063,2024_RDpaindiscrimination_maintask,2023.2.3,59.98109394789935,2025-08-04 13h35.54.151230 -0400,
0,0,0,0,4,0,4,0,,,,,,,,,,,,,304.43887760001235,,,,,,,,304.42577440000605,309.4223493000027,309.4223570000031,309.43890629999805,321.4226506000268,0,inactive,42.9,321.4227881000261,325.8746132000233,30.500000000000043,4.431,321.4556960000191,,,,,,,,,,,,,,,,,,,,,,,,,,,,,,,,,,,,,,sub-062,42.9,41.2,43.7,COM3,2025-08-04_13h35.39.063,2024_RDpaindiscrimination_maintask,2023.2.3,59.98109394789935,2025-08-04 13h35.54.151230 -0400,
0,0,0,0,5,0,5,0,,,,,,,,,,,,,325.88908310001716,,,,,,,,325.8754593000049,330.87265239999397,330.87265890004346,330.889146200032,342.8728826000006,1,inactive,42.9,342.87302110000746,345.3934464000049,29.499999999999964,2.501,342.90589719999116,,,,,,,,,,,,,,,,,,,,,,,,,,,,,,,,,,,,,,sub-062,42.9,41.2,43.7,COM3,2025-08-04_13h35.39.063,2024_RDpaindiscrimination_maintask,2023.2.3,59.98109394789935,2025-08-04 13h35.54.151230 -0400,
0,0,0,0,6,0,6,0,,,,,,,,,,,,,345.40588120004395,,,,,,,,345.3941952000023,350.3893647000077,350.3893722000066,350.4059133999981,362.3898401000188,2,active,41.2,362.3899785000249,364.8243846000405,24.999999999999982,2.415,362.4228365000454,,,,,,,,,,,,,,,,,,,,,,,,,,,,,,,,,,,,,,sub-062,42.9,41.2,43.7,COM3,2025-08-04_13h35.39.063,2024_RDpaindiscrimination_maintask,2023.2.3,59.98109394789935,2025-08-04 13h35.54.151230 -0400,
0,0,0,0,7,0,7,0,,,,,,,,,,,,,364.83944160002284,,,,,,,,364.8251471000258,369.82296250003856,369.82296870002756,369.83946119999746,381.8232540000463,3,inactive,42.9,381.82339279999724,387.52599510003347,51.500000000000064,5.683,381.8562662000186,,,,,,,,,,,,,,,,,,,,,,,,,,,,,,,,,,,,,,sub-062,42.9,41.2,43.7,COM3,2025-08-04_13h35.39.063,2024_RDpaindiscrimination_maintask,2023.2.3,59.98109394789935,2025-08-04 13h35.54.151230 -0400,
0,0,0,0,8,0,8,0,,,,,,,,,,,,,387.53972910001175,,,,,,,,387.52678840002045,392.5231935000047,392.5231991999899,392.53972370002884,404.52358670003014,0,inactive,42.9,404.52372280001873,407.75969900004566,30.000000000000107,3.216,404.55666070000734,,,,,,,,,,,,,,,,,,,,,,,,,,,,,,,,,,,,,,sub-062,42.9,41.2,43.7,COM3,2025-08-04_13h35.39.063,2024_RDpaindiscrimination_maintask,2023.2.3,59.98109394789935,2025-08-04 13h35.54.151230 -0400,
0,0,0,0,9,0,9,0,,,,,,,,,,,,,407.77327260002494,,,,,,,,407.76046429999406,412.7567673000158,412.756773400004,412.7732830000459,424.75710779998917,1,active,41.2,424.7572615999961,428.60814309999114,28.000000000000114,3.831,424.79009180003777,,,,,,,,,,,,,,,,,,,,,,,,,,,,,,,,,,,,,,sub-062,42.9,41.2,43.7,COM3,2025-08-04_13h35.39.063,2024_RDpaindiscrimination_maintask,2023.2.3,59.98109394789935,2025-08-04 13h35.54.151230 -0400,
0,0,0,0,10,0,10,0,,,,,,,,,,,,,428.6234966000193,,,,,,,,428.6089571000193,433.6069916000124,433.60699719999684,433.62355570000364,445.6072853000369,2,inactive,42.9,445.60742170002777,448.8261082000099,51.4999999999999,3.198,445.64031620003516,,,,,,,,,,,,,,,,,,,,,,,,,,,,,,,,,,,,,,sub-062,42.9,41.2,43.7,COM3,2025-08-04_13h35.39.063,2024_RDpaindiscrimination_maintask,2023.2.3,59.98109394789935,2025-08-04 13h35.54.151230 -0400,
0,0,0,0,11,0,11,0,,,,,,,,,,,,,448.84040059999097,,,,,,,,448.8268361000228,453.82388510002056,453.8238905000035,453.84041669999715,465.82420880004065,3,inactive,42.9,465.82434930000454,469.64279350003926,50.4999999999999,3.798,465.85728590004146,,,,,,,,,,,,,,,,,,,,,,,,,,,,,,,,,,,,,,sub-062,42.9,41.2,43.7,COM3,2025-08-04_13h35.39.063,2024_RDpaindiscrimination_maintask,2023.2.3,59.98109394789935,2025-08-04 13h35.54.151230 -0400,
0,0,0,0,12,0,12,0,,,,,,,,,,,,,469.65726490004454,,,,,,,,469.643576500006,474.64079360000324,474.6407995999907,474.6573222000152,486.64115450001555,0,active,41.2,486.64129140001023,489.17609570000786,13.000000000000028,2.514,486.67413930001203,,,,,,,,,,,,,,,,,,,,,,,,,,,,,,,,,,,,,,sub-062,42.9,41.2,43.7,COM3,2025-08-04_13h35.39.063,2024_RDpaindiscrimination_maintask,2023.2.3,59.98109394789935,2025-08-04 13h35.54.151230 -0400,
0,0,0,0,13,0,13,0,,,,,,,,,,,,,489.19089880003594,,,,,,,,489.17683050001506,494.1743841000134,494.1743895999971,494.19091579999076,506.1746790999896,1,active,41.2,506.17481840000255,509.7596773999976,17.500000000000103,3.565,506.20769890001975,,,,,,,,,,,,,,,,,,,,,,,,,,,,,,,,,,,,,,sub-062,42.9,41.2,43.7,COM3,2025-08-04_13h35.39.063,2024_RDpaindiscrimination_maintask,2023.2.3,59.98109394789935,2025-08-04 13h35.54.151230 -0400,
0,0,0,0,14,0,14,0,,,,,,,,,,,,,509.77442800003337,,,,,,,,509.7604333999916,514.7579483000445,514.757954300032,514.774482900044,526.7583326000022,2,inactive,42.9,526.7584686999908,529.977027200046,56.500000000000085,3.198,526.7912918000366,,,,,,,,,,,,,,,,,,,,,,,,,,,,,,,,,,,,,,sub-062,42.9,41.2,43.7,COM3,2025-08-04_13h35.39.063,2024_RDpaindiscrimination_maintask,2023.2.3,59.98109394789935,2025-08-04 13h35.54.151230 -0400,
0,0,0,0,15,0,15,0,,,,,,,,,,,,,529.9913690999965,,,,,,,,529.977761999995,534.9748508000048,534.97485649999,534.9913792000152,546.9752121000201,3,active,41.2,546.9753499000217,552.3778059000033,21.000000000000078,5.382,547.008185200044,,,,,,,,,,,,,,,,,,,,,,,,,,,,,,,,,,,,,,sub-062,42.9,41.2,43.7,COM3,2025-08-04_13h35.39.063,2024_RDpaindiscrimination_maintask,2023.2.3,59.98109394789935,2025-08-04 13h35.54.151230 -0400,
0,0,0,0,,,,,0,0,0,0,0,0,0,0,,,,,567.9750789999962,,,,,,567.6423380000051,567.958667400002,,,,,,0,inactive,42.9,584.9589495999971,589.8103418000392,22.50000000000017,4.831,,552.3783682000358,552.391654200037,567.6420038000215,567.9589339999948,572.9585658000433,572.958572100033,572.9751124000177,584.9919532000204,584.9589408999891,,,,,,,,,,,,,,,,,,,,,,,,,,,,,sub-062,42.9,41.2,43.7,COM3,2025-08-04_13h35.39.063,2024_RDpaindiscrimination_maintask,2023.2.3,59.98109394789935,2025-08-04 13h35.54.151230 -0400,
0,0,0,0,,,,,0,0,0,0,1,0,1,0,,,,,589.8254336999962,,,,,,,,,,,,,1,active,42.9,606.809211200045,610.326910600008,26.500000000000085,3.497,,,,,589.8110870000091,594.8089378000004,594.8089439999894,594.8253991000238,606.8422153000138,606.8092032000422,,,,,,,,,,,,,,,,,,,,,,,,,,,,,sub-062,42.9,41.2,43.7,COM3,2025-08-04_13h35.39.063,2024_RDpaindiscrimination_maintask,2023.2.3,59.98109394789935,2025-08-04 13h35.54.151230 -0400,
0,0,0,0,,,,,0,0,0,0,,,,,0,0,0,0,612.0422626000363,,,,,,,,,,,,,2,inactive,,,,,,,,,,,,,,,,610.3274348000414,612.0258478000178,612.0261436000001,617.0258253000211,617.025831100007,617.0423202000093,625.0257445999887,625.0257445999887,627.9924593000324,628.0257838999969,628.0257838999969,628.0092812000075,4.6,4.2,459,420,8,1.2,0.75,pic-present,1,m,1.255593299982138,None,,,,,sub-062,42.9,41.2,43.7,COM3,2025-08-04_13h35.39.063,2024_RDpaindiscrimination_maintask,2023.2.3,59.98109394789935,2025-08-04 13h35.54.151230 -0400,
0,0,0,0,,,,,0,0,0,0,,,,,1,0,1,0,628.0257838999969,,,,,,,,,,,,,3,active,,,,,,,,,,,,,,,,,,628.009892800008,633.0092944999924,633.0093008000404,633.0258500000346,641.0092563999933,641.0092563999933,643.9759577999939,644.0092920000316,644.0092920000316,643.9928260000306,4.61,4.19,461,419,8,1.2,0.75,pic-present,0,n,1.3632824000087567,None,,,,,sub-062,42.9,41.2,43.7,COM3,2025-08-04_13h35.39.063,2024_RDpaindiscrimination_maintask,2023.2.3,59.98109394789935,2025-08-04 13h35.54.151230 -0400,
0,0,0,0,,,,,0,0,0,0,,,,,2,0,2,0,644.0092920000316,,,,,,,,,,,,,0,inactive,,,,,,,,,,,,,,,,,,643.993320700014,648.9928575000376,648.9928646000335,649.0093477999908,656.9927718000254,656.9927718000254,659.9594712000107,659.9927988999989,659.9927988999989,659.9763077000389,4.49,4.31,449,430,8,1.2,0.75,pic-absent,0,n,1.4435982999857515,None,,,,,sub-062,42.9,41.2,43.7,COM3,2025-08-04_13h35.39.063,2024_RDpaindiscrimination_maintask,2023.2.3,59.98109394789935,2025-08-04 13h35.54.151230 -0400,
0,0,0,0,,,,,0,0,0,0,,,,,3,0,3,0,659.9927988999989,,,,,,,,,,,,,1,inactive,,,,,,,,,,,,,,,,,,659.9767546000076,664.9763529000338,664.9763601000304,664.9928902999964,672.9763399999938,672.9763399999938,675.9430026999908,675.9763239000458,675.9763239000458,675.9598557000281,4.19,4.61,419,461,8,1.2,0.75,pic-present,1,m,1.1046867999830283,None,,,,,sub-062,42.9,41.2,43.7,COM3,2025-08-04_13h35.39.063,2024_RDpaindiscrimination_maintask,2023.2.3,59.98109394789935,2025-08-04 13h35.54.151230 -0400,
0,0,0,0,,,,,1,0,1,0,0,0,0,0,,,,,677.8097791000037,,,,,,675.9604371000314,677.7932215000037,,,,,,2,active,42.9,694.7933323000325,698.212366599997,27.000000000000046,3.399,,,,,677.7935436000116,682.7932863000315,682.7932935000281,682.8097485000035,,694.7933252000366,,,,,,,,,,,,,,,,,,,,,,,,,,,,,sub-062,42.9,41.2,43.7,COM3,2025-08-04_13h35.39.063,2024_RDpaindiscrimination_maintask,2023.2.3,59.98109394789935,2025-08-04 13h35.54.151230 -0400,
0,0,0,0,,,,,1,0,1,0,1,0,1,0,,,,,698.2266752000432,,,,,,,,,,,,,3,inactive,42.9,715.2105453000404,719.3954288000241,39.49999999999993,4.105,,,,,698.2131336000166,703.2102035999997,703.2102103999932,703.2267267000279,715.2934213000117,715.2105373000377,,,,,,,,,,,,,,,,,,,,,,,,,,,,,sub-062,42.9,41.2,43.7,COM3,2025-08-04_13h35.39.063,2024_RDpaindiscrimination_maintask,2023.2.3,59.98109394789935,2025-08-04 13h35.54.151230 -0400,
0,0,0,0,,,,,1,0,1,0,,,,,0,0,0,0,720.8102689000079,,,,,,,,,,,,,0,active,,,,,,,,,,,,,,,,719.3959732000367,720.7938387999893,720.7941284000408,725.7937885000138,725.7937955000089,725.8103181000333,733.7936447000247,733.7936447000247,736.7604423000012,736.793780100008,736.793780100008,736.7772592999972,3.8,5.0,380,500,8,1.2,0.75,pic-absent,0,n,1.1999931000173092,None,,,,,sub-062,42.9,41.2,43.7,COM3,2025-08-04_13h35.39.063,2024_RDpaindiscrimination_maintask,2023.2.3,59.98109394789935,2025-08-04 13h35.54.151230 -0400,
0,0,0,0,,,,,1,0,1,0,,,,,1,0,1,0,736.793780100008,,,,,,,,,,,,,1,active,,,,,,,,,,,,,,,,,,736.7777867999976,741.7773097000318,741.7773166000261,741.7938366000308,749.7772563000326,749.7772563000326,752.7439570000279,752.7772904000012,752.7772904000012,752.7607959000161,4.0,4.8,400,480,8,1.2,0.75,pic-absent,0,n,1.7041088999831118,None,,,,,sub-062,42.9,41.2,43.7,COM3,2025-08-04_13h35.39.063,2024_RDpaindiscrimination_maintask,2023.2.3,59.98109394789935,2025-08-04 13h35.54.151230 -0400,
0,0,0,0,,,,,1,0,1,0,,,,,2,0,2,0,752.7772904000012,,,,,,,,,,,,,2,inactive,,,,,,,,,,,,,,,,,,752.7612616000115,757.7608203000273,757.7608276000246,757.7773478000308,765.7607829000335,765.7607829000335,768.7274598000222,768.7608075999888,768.7608075999888,768.7442840000149,4.09,4.71,409,471,8,1.2,0.75,pic-present,0,n,1.3402923999819905,None,,,,,sub-062,42.9,41.2,43.7,COM3,2025-08-04_13h35.39.063,2024_RDpaindiscrimination_maintask,2023.2.3,59.98109394789935,2025-08-04 13h35.54.151230 -0400,
0,0,0,0,,,,,1,0,1,0,,,,,3,0,3,0,768.7608075999888,,,,,,,,,,,,,3,inactive,,,,,,,,,,,,,,,,,,768.7447336000041,773.7443356000003,773.7443420999916,773.7608627000009,781.7442830000073,781.7442830000073,784.7109954000334,784.7442814999959,784.7442814999959,784.7278406000114,4.48,4.32,448,432,8,1.2,0.75,pic-absent,0,n,1.292875199986156,None,,,,,sub-062,42.9,41.2,43.7,COM3,2025-08-04_13h35.39.063,2024_RDpaindiscrimination_maintask,2023.2.3,59.98109394789935,2025-08-04 13h35.54.151230 -0400,
0,0,0,0,,,,,2,0,2,0,0,0,0,0,,,,,786.0943379999953,,,,,,784.7283457000158,786.0778883000021,,,,,,0,active,42.9,803.0781671000295,807.8295280000311,19.000000000000078,4.731,,,,,786.0781704999972,791.0778273000033,791.0778340999968,791.0943522000453,803.1111903000274,803.0781572000124,,,,,,,,,,,,,,,,,,,,,,,,,,,,,sub-062,42.9,41.2,43.7,COM3,2025-08-04_13h35.39.063,2024_RDpaindiscrimination_maintask,2023.2.3,59.98109394789935,2025-08-04 13h35.54.151230 -0400,
0,0,0,0,,,,,2,0,2,0,1,0,1,0,,,,,807.8445869000279,,,,,,,,,,,,,1,inactive,42.9,824.8283802000224,827.3979454000364,25.000000000000018,2.549,,,,,807.8302742000087,812.8280309000402,812.8280370000284,812.844523000007,824.8614422000246,824.8283721000189,,,,,,,,,,,,,,,,,,,,,,,,,,,,,sub-062,42.9,41.2,43.7,COM3,2025-08-04_13h35.39.063,2024_RDpaindiscrimination_maintask,2023.2.3,59.98109394789935,2025-08-04 13h35.54.151230 -0400,
0,0,0,0,,,,,2,0,2,0,,,,,0,0,0,0,828.8114427000401,,,,,,,,,,,,,2,active,,,,,,,,,,,,,,,,827.3985095000244,828.7950805000146,828.7953799000243,833.7950476999977,833.7950540000456,833.8115472000209,841.794934000005,841.794934000005,844.7615599000128,844.7948910000268,844.7948910000268,844.7783761000028,4.16,4.64,416,463,8,1.2,0.75,pic-present,1,m,1.20227700000396,None,,,,,sub-062,42.9,41.2,43.7,COM3,2025-08-04_13h35.39.063,2024_RDpaindiscrimination_maintask,2023.2.3,59.98109394789935,2025-08-04 13h35.54.151230 -0400,
0,0,0,0,,,,,2,0,2,0,,,,,1,0,1,0,844.7948910000268,,,,,,,,,,,,,3,inactive,,,,,,,,,,,,,,,,,,844.778924000042,849.7784366999986,849.7784435999929,849.7949740000186,857.7784962000442,857.7784962000442,860.7451006000047,860.778492100013,860.778492100013,860.761931999994,3.44,5.36,344,536,8,1.2,0.75,pic-absent,0,n,1.254056399979163,None,,,,,sub-062,42.9,41.2,43.7,COM3,2025-08-04_13h35.39.063,2024_RDpaindiscrimination_maintask,2023.2.3,59.98109394789935,2025-08-04 13h35.54.151230 -0400,
0,0,0,0,,,,,2,0,2,0,,,,,2,0,2,0,860.778492100013,,,,,,,,,,,,,0,active,,,,,,,,,,,,,,,,,,860.7624827999971,865.7620000999887,865.7620065000374,865.7784939000267,873.7620111000142,873.7620111000142,876.7286429000087,876.7619529000367,876.7619529000367,876.7454435999971,4.3,4.5,430,450,8,1.2,0.75,pic-present,0,n,2.1264646000345238,None,,,,,sub-062,42.9,41.2,43.7,COM3,2025-08-04_13h35.39.063,2024_RDpaindiscrimination_maintask,2023.2.3,59.98109394789935,2025-08-04 13h35.54.151230 -0400,
0,0,0,0,,,,,2,0,2,0,,,,,3,0,3,0,876.7619529000367,,,,,,,,,,,,,1,active,,,,,,,,,,,,,,,,,,876.7458918000339,881.7455210000044,881.7455276999972,881.7620105000096,889.7453939000261,889.7453939000261,892.7121009000111,892.7454341000412,892.7454341000412,892.7289153000456,3.73,5.07,373,507,8,1.2,0.75,pic-present,1,m,1.1556177000165917,None,,,,,sub-062,42.9,41.2,43.7,COM3,2025-08-04_13h35.39.063,2024_RDpaindiscrimination_maintask,2023.2.3,59.98109394789935,2025-08-04 13h35.54.151230 -0400,
0,0,0,0,,,,,3,0,3,0,0,0,0,0,,,,,893.8787845000043,,,,,,892.7294016000233,893.8623362000217,,,,,,2,inactive,42.9,910.8626580000273,913.4482250000001,55.500000000000014,2.565,,,,,893.8626185000176,898.8623419000069,898.8623487000004,898.8788993000053,910.895686200005,910.8626502000261,,,,,,,,,,,,,,,,,,,,,,,,,,,,,sub-062,42.9,41.2,43.7,COM3,2025-08-04_13h35.39.063,2024_RDpaindiscrimination_maintask,2023.2.3,59.98109394789935,2025-08-04 13h35.54.151230 -0400,
0,0,0,0,,,,,3,0,3,0,1,0,1,0,,,,,913.4624381000176,,,,,,,,,,,,,3,active,42.9,930.4462474000175,934.6308192000142,39.50000000000014,4.165,,,,,913.4489624000271,918.4459449000424,918.4459513000329,918.4625133000081,930.4792354000383,930.4462396000163,,,,,,,,,,,,,,,,,,,,,,,,,,,,,sub-062,42.9,41.2,43.7,COM3,2025-08-04_13h35.39.063,2024_RDpaindiscrimination_maintask,2023.2.3,59.98109394789935,2025-08-04 13h35.54.151230 -0400,
0,0,0,0,,,,,3,0,3,0,,,,,0,0,0,0,936.1126785000088,,,,,,,,,,,,,0,inactive,,,,,,,,,,,,,,,,934.6313144000014,936.0961824000115,936.0964758000337,941.0961162000312,941.0961228000233,941.1126713000122,949.0961039999966,949.0961039999966,952.0628221000079,952.0962134000147,952.0962134000147,952.0796728000278,4.42,4.38,442,438,8,1.2,0.75,pic-absent,0,n,1.1563991999719292,None,,,,,sub-062,42.9,41.2,43.7,COM3,2025-08-04_13h35.39.063,2024_RDpaindiscrimination_maintask,2023.2.3,59.98109394789935,2025-08-04 13h35.54.151230 -0400,
0,0,0,0,,,,,3,0,3,0,,,,,1,0,1,0,952.0962134000147,,,,,,,,,,,,,1,inactive,,,,,,,,,,,,,,,,,,952.0802470000344,957.0797650000313,957.0797711000196,957.0962236000341,965.0795904000406,965.0795904000406,968.046292300045,968.0796646000235,968.0796646000235,968.0631214000168,4.15,4.65,415,465,8,1.2,0.75,pic-present,1,m,1.045094600005541,None,,,,,sub-062,42.9,41.2,43.7,COM3,2025-08-04_13h35.39.063,2024_RDpaindiscrimination_maintask,2023.2.3,59.98109394789935,2025-08-04 13h35.54.151230 -0400,
0,0,0,0,,,,,3,0,3,0,,,,,2,0,2,0,968.0796646000235,,,,,,,,,,,,,2,active,,,,,,,,,,,,,,,,,,968.0636098000105,973.0631529000239,973.0631609000266,973.0796849000035,981.0631096000434,981.0631096000434,984.029809300031,984.0631349000032,984.0631349000032,984.0466224999982,4.03,4.77,403,476,8,1.2,0.75,pic-absent,0,n,1.1304990999633446,None,,,,,sub-062,42.9,41.2,43.7,COM3,2025-08-04_13h35.39.063,2024_RDpaindiscrimination_maintask,2023.2.3,59.98109394789935,2025-08-04 13h35.54.151230 -0400,
0,0,0,0,,,,,3,0,3,0,,,,,3,0,3,0,984.0631349000032,,,,,,,,,,,,,3,active,,,,,,,,,,,,,,,,,,984.0470834000153,989.0466607999988,989.0466674999916,989.0632003000355,997.0466745000449,997.0466745000449,1000.013329700043,1000.0466634000186,1000.0466634000186,1000.0301464000368,3.29,5.51,329,551,8,1.2,0.75,pic-absent,0,n,1.3542293999926187,None,,,,,sub-062,42.9,41.2,43.7,COM3,2025-08-04_13h35.39.063,2024_RDpaindiscrimination_maintask,2023.2.3,59.98109394789935,2025-08-04 13h35.54.151230 -0400,
1,0,1,0,0,0,0,0,,,,,,,,,,,,,1015.3968357000267,,,,1007.1471079000039,1013.7970604000147,1013.7970695000258,1015.3803757000132,1015.3806853000424,1020.3804029000457,1020.3804092000355,1020.3968920999905,1032.3804662000039,0,active,41.2,1032.3807010000455,1036.5660051000305,26.500000000000192,4.161,,,,,,,,,,,,,,,,,,,,,,,,,,,,,,,,,,,1000.030612600036,1007.1469846999971,,,sub-062,42.9,41.2,43.7,COM3,2025-08-04_13h35.39.063,2024_RDpaindiscrimination_maintask,2023.2.3,59.98109394789935,2025-08-04 13h35.54.151230 -0400,
1,0,1,0,1,0,1,0,,,,,,,,,,,,,1036.5804302000324,,,,,,,,1036.566501400026,1041.564010400034,1041.5640167000238,1041.5804744000197,1053.5642821000074,1,inactive,42.9,1053.564422800031,1055.9486316000111,34.999999999999986,2.363,1053.5973525000154,,,,,,,,,,,,,,,,,,,,,,,,,,,,,,,,,,,,,,sub-062,42.9,41.2,43.7,COM3,2025-08-04_13h35.39.063,2024_RDpaindiscrimination_maintask,2023.2.3,59.98109394789935,2025-08-04 13h35.54.151230 -0400,
1,0,1,0,2,0,2,0,,,,,,,,,,,,,1055.9640332999988,,,,,,,,1055.9493767000386,1060.9475614000112,1060.9475680000032,1060.9641432000208,1072.9479431000073,2,active,41.2,1072.948089500016,1076.8829262999934,27.500000000000185,3.915,1072.980870600033,,,,,,,,,,,,,,,,,,,,,,,,,,,,,,,,,,,,,,sub-062,42.9,41.2,43.7,COM3,2025-08-04_13h35.39.063,2024_RDpaindiscrimination_maintask,2023.2.3,59.98109394789935,2025-08-04 13h35.54.151230 -0400,
1,0,1,0,3,0,3,0,,,,,,,,,,,,,1076.8976316000335,,,,,,,,1076.8836735000368,1081.8811130000395,1081.881119800033,1081.89764010004,1093.881449800043,3,inactive,42.9,1093.8815926000243,1097.0668888000073,45.000000000000085,3.165,1093.9144726000377,,,,,,,,,,,,,,,,,,,,,,,,,,,,,,,,,,,,,,sub-062,42.9,41.2,43.7,COM3,2025-08-04_13h35.39.063,2024_RDpaindiscrimination_maintask,2023.2.3,59.98109394789935,2025-08-04 13h35.54.151230 -0400,
1,0,1,0,4,0,4,0,,,,,,,,,,,,,1097.081155300024,,,,,,,,1097.067693000019,1102.0646684000385,1102.064674800029,1102.081200900022,1114.0649547000066,0,inactive,42.9,1114.0650953000295,1118.0163697000244,30.99999999999996,3.931,1114.0980060000438,,,,,,,,,,,,,,,,,,,,,,,,,,,,,,,,,,,,,,sub-062,42.9,41.2,43.7,COM3,2025-08-04_13h35.39.063,2024_RDpaindiscrimination_maintask,2023.2.3,59.98109394789935,2025-08-04 13h35.54.151230 -0400,
1,0,1,0,5,0,5,0,,,,,,,,,,,,,1118.031424899993,,,,,,,,1118.0171455999953,1123.0149138999986,1123.0149213999975,1123.0314426000114,1135.0152579999994,1,active,41.2,1135.015397900017,1138.5666234000237,25.00000000000016,3.531,1135.0482326000347,,,,,,,,,,,,,,,,,,,,,,,,,,,,,,,,,,,,,,sub-062,42.9,41.2,43.7,COM3,2025-08-04_13h35.39.063,2024_RDpaindiscrimination_maintask,2023.2.3,59.98109394789935,2025-08-04 13h35.54.151230 -0400,
1,0,1,0,6,0,6,0,,,,,,,,,,,,,1138.5816760000307,,,,,,,,1138.5673807000276,1143.5650998000056,1143.5651052999892,1143.5816402999917,1155.5654205000028,2,inactive,42.9,1155.565559700015,1157.666891700006,60.0,2.081,1155.598446900025,,,,,,,,,,,,,,,,,,,,,,,,,,,,,,,,,,,,,,sub-062,42.9,41.2,43.7,COM3,2025-08-04_13h35.39.063,2024_RDpaindiscrimination_maintask,2023.2.3,59.98109394789935,2025-08-04 13h35.54.151230 -0400,
1,0,1,0,7,0,7,0,,,,,,,,,,,,,1157.6818693000241,,,,,,,,1157.6676592000294,1162.6653651000233,1162.665370600007,1162.6818882999942,1174.6656812000438,3,active,41.2,1174.6658199999947,1177.083405500045,16.500000000000007,2.397,1174.6987043000408,,,,,,,,,,,,,,,,,,,,,,,,,,,,,,,,,,,,,,sub-062,42.9,41.2,43.7,COM3,2025-08-04_13h35.39.063,2024_RDpaindiscrimination_maintask,2023.2.3,59.98109394789935,2025-08-04 13h35.54.151230 -0400,
1,0,1,0,8,0,8,0,,,,,,,,,,,,,1177.0987755000242,,,,,,,,1177.0841646000044,1182.0822258000262,1182.082231700013,1182.0987497000024,1194.082559100003,0,inactive,42.9,1194.0827047000057,1197.5676945000305,37.499999999999936,3.465,1194.1155823000008,,,,,,,,,,,,,,,,,,,,,,,,,,,,,,,,,,,,,,sub-062,42.9,41.2,43.7,COM3,2025-08-04_13h35.39.063,2024_RDpaindiscrimination_maintask,2023.2.3,59.98109394789935,2025-08-04 13h35.54.151230 -0400,
1,0,1,0,9,0,9,0,,,,,,,,,,,,,1197.5823276000447,,,,,,,,1197.5684475000016,1202.5658293000306,1202.5658354000188,1202.5823542000144,1214.566157000023,1,inactive,42.9,1214.5663207999896,1218.3341393000446,74.49999999999989,3.747,1214.5991687999922,,,,,,,,,,,,,,,,,,,,,,,,,,,,,,,,,,,,,,sub-062,42.9,41.2,43.7,COM3,2025-08-04_13h35.39.063,2024_RDpaindiscrimination_maintask,2023.2.3,59.98109394789935,2025-08-04 13h35.54.151230 -0400,
1,0,1,0,10,0,10,0,,,,,,,,,,,,,1218.3492540000007,,,,,,,,1218.334896000044,1223.3327301000245,1223.3327363000135,1223.34928580001,1235.3330375000369,2,active,41.2,1235.3331797000137,1238.3518714000238,58.00000000000004,2.998,1235.366080900014,,,,,,,,,,,,,,,,,,,,,,,,,,,,,,,,,,,,,,sub-062,42.9,41.2,43.7,COM3,2025-08-04_13h35.39.063,2024_RDpaindiscrimination_maintask,2023.2.3,59.98109394789935,2025-08-04 13h35.54.151230 -0400,
1,0,1,0,11,0,11,0,,,,,,,,,,,,,1238.3661244999967,,,,,,,,1238.3526240999927,1243.3495874000364,1243.3495935000246,1243.366112400021,1255.3500521000242,3,inactive,42.9,1255.350192300044,1259.2019436000264,39.000000000000014,3.831,1255.3830361000146,,,,,,,,,,,,,,,,,,,,,,,,,,,,,,,,,,,,,,sub-062,42.9,41.2,43.7,COM3,2025-08-04_13h35.39.063,2024_RDpaindiscrimination_maintask,2023.2.3,59.98109394789935,2025-08-04 13h35.54.151230 -0400,
1,0,1,0,12,0,12,0,,,,,,,,,,,,,1259.2164358000155,,,,,,,,1259.2026939000352,1264.199897500046,1264.1999031000305,1264.2163957000012,1276.2002893000026,0,active,41.2,1276.2004313000361,1279.402217200026,28.500000000000078,3.182,1276.2332953000441,,,,,,,,,,,,,,,,,,,,,,,,,,,,,,,,,,,,,,sub-062,42.9,41.2,43.7,COM3,2025-08-04_13h35.39.063,2024_RDpaindiscrimination_maintask,2023.2.3,59.98109394789935,2025-08-04 13h35.54.151230 -0400,
1,0,1,0,13,0,13,0,,,,,,,,,,,,,1279.4166053000372,,,,,,,,1279.4029721000115,1284.400057699997,1284.4000633000396,1284.4165944000124,1296.4005363000324,1,active,41.2,1296.4006773,1300.5019598000217,30.000000000000107,4.081,1296.4336207000306,,,,,,,,,,,,,,,,,,,,,,,,,,,,,,,,,,,,,,sub-062,42.9,41.2,43.7,COM3,2025-08-04_13h35.39.063,2024_RDpaindiscrimination_maintask,2023.2.3,59.98109394789935,2025-08-04 13h35.54.151230 -0400,
1,0,1,0,14,0,14,0,,,,,,,,,,,,,1300.5169032000122,,,,,,,,1300.5027320000227,1305.5004368000082,1305.5004427999957,1305.5169598000357,1317.5006469000364,2,inactive,42.9,1317.500782600022,1320.5869848000002,65.00000000000001,3.066,1317.5337188999983,,,,,,,,,,,,,,,,,,,,,,,,,,,,,,,,,,,,,,sub-062,42.9,41.2,43.7,COM3,2025-08-04_13h35.39.063,2024_RDpaindiscrimination_maintask,2023.2.3,59.98109394789935,2025-08-04 13h35.54.151230 -0400,
1,0,1,0,15,0,15,0,,,,,,,,,,,,,1320.600465000025,,,,,,,,1320.5877695000381,1325.583974100009,1325.5839797999943,1325.6005212000455,1337.5842688000412,3,active,41.2,1337.5844057000359,1340.1845926000387,54.499999999999986,2.579,1337.617289900023,,,,,,,,,,,,,,,,,,,,,,,,,,,,,,,,,,,,,,sub-062,42.9,41.2,43.7,COM3,2025-08-04_13h35.39.063,2024_RDpaindiscrimination_maintask,2023.2.3,59.98109394789935,2025-08-04 13h35.54.151230 -0400,
1,0,1,0,,,,,0,0,0,0,0,0,0,0,,,,,1344.4339908999973,,,,,,1344.0345880000386,1344.4175004000426,,,,,,0,active,42.9,1361.417651500029,1364.7862782000448,26.000000000000156,3.348,,1340.184783600038,1340.2006117000128,1344.0342628000071,1344.4177607000456,1349.417604700022,1349.4176111000124,1349.4341463000164,,1361.4176433000248,,,,,,,,,,,,,,,,,,,,,,,,,,,,,sub-062,42.9,41.2,43.7,COM3,2025-08-04_13h35.39.063,2024_RDpaindiscrimination_maintask,2023.2.3,59.98109394789935,2025-08-04 13h35.54.151230 -0400,
1,0,1,0,,,,,0,0,0,0,1,0,1,0,,,,,1364.8009692000342,,,,,,,,,,,,,1,inactive,42.9,1381.7847824000055,1384.303813000035,63.50000000000002,2.499,,,,,1364.7869941000245,1369.7845085000154,1369.784515300009,1369.8010790999979,1381.8178018000326,1381.7847746000043,,,,,,,,,,,,,,,,,,,,,,,,,,,,,sub-062,42.9,41.2,43.7,COM3,2025-08-04_13h35.39.063,2024_RDpaindiscrimination_maintask,2023.2.3,59.98109394789935,2025-08-04 13h35.54.151230 -0400,
1,0,1,0,,,,,0,0,0,0,,,,,0,0,0,0,1385.8510964000016,,,,,,,,,,,,,2,inactive,,,,,,,,,,,,,,,,1384.3043418000452,1385.8346614000038,1385.8349874000414,1390.8346596999909,1390.8346667000442,1390.8511476000422,1398.834613300045,1398.834613300045,1401.801314100041,1401.8346484000213,1401.8346484000213,1401.8181938999915,4.0,4.8,400,480,8,1.2,0.75,pic-present,1,m,1.1224866999546066,None,,,,,sub-062,42.9,41.2,43.7,COM3,2025-08-04_13h35.39.063,2024_RDpaindiscrimination_maintask,2023.2.3,59.98109394789935,2025-08-04 13h35.54.151230 -0400,
1,0,1,0,,,,,0,0,0,0,,,,,1,0,1,0,1401.8346484000213,,,,,,,,,,,,,3,active,,,,,,,,,,,,,,,,,,1401.8187095000176,1406.8181796999997,1406.8181859999895,1406.8347114000353,1414.8180933000403,1414.8180933000403,1417.7847953000455,1417.8181520000217,1417.8181520000217,1417.801718200033,4.47,4.33,447,433,8,1.2,0.75,pic-absent,0,n,1.174624799983576,None,,,,,sub-062,42.9,41.2,43.7,COM3,2025-08-04_13h35.39.063,2024_RDpaindiscrimination_maintask,2023.2.3,59.98109394789935,2025-08-04 13h35.54.151230 -0400,
1,0,1,0,,,,,0,0,0,0,,,,,2,0,2,0,1417.8181520000217,,,,,,,,,,,,,0,active,,,,,,,,,,,,,,,,,,1417.8021593000158,1422.8016566000297,1422.8016636000248,1422.8181946999975,1430.8017525000032,1430.8017525000032,1433.7683500000276,1433.8016883000382,1433.8016883000382,1433.7851728000096,4.64,4.16,463,416,8,1.2,0.75,pic-absent,0,n,1.1906698000384495,None,,,,,sub-062,42.9,41.2,43.7,COM3,2025-08-04_13h35.39.063,2024_RDpaindiscrimination_maintask,2023.2.3,59.98109394789935,2025-08-04 13h35.54.151230 -0400,
1,0,1,0,,,,,0,0,0,0,,,,,3,0,3,0,1433.8016883000382,,,,,,,,,,,,,1,inactive,,,,,,,,,,,,,,,,,,1433.78564310004,1438.7851714999997,1438.7851775000454,1438.801703300036,1446.7852533000405,1446.7852533000405,1449.7518654000014,1449.7851998000406,1449.7851998000406,1449.768767200003,4.59,4.21,459,421,8,1.2,0.75,pic-present,1,m,1.1643487999681383,None,,,,,sub-062,42.9,41.2,43.7,COM3,2025-08-04_13h35.39.063,2024_RDpaindiscrimination_maintask,2023.2.3,59.98109394789935,2025-08-04 13h35.54.151230 -0400,
1,0,1,0,,,,,1,0,1,0,0,0,0,0,,,,,1450.718580899993,,,,,,1449.7692445000284,1450.7021011000033,,,,,,2,inactive,42.9,1467.7021386999986,1470.2877261000103,53.50000000000002,2.565,,,,,1450.7023823999916,1455.7020906000398,1455.7020970000303,1455.718604099995,,1467.7021316000028,,,,,,,,,,,,,,,,,,,,,,,,,,,,,sub-062,42.9,41.2,43.7,COM3,2025-08-04_13h35.39.063,2024_RDpaindiscrimination_maintask,2023.2.3,59.98109394789935,2025-08-04 13h35.54.151230 -0400,
1,0,1,0,,,,,1,0,1,0,1,0,1,0,,,,,1470.302105300012,,,,,,,,,,,,,3,active,42.9,1487.2859583999962,1490.2040190999978,59.500000000000036,2.898,,,,,1470.2885047000018,1475.2856515000458,1475.2856579000363,1475.3021580000059,1487.3189892999944,1487.285950999998,,,,,,,,,,,,,,,,,,,,,,,,,,,,,sub-062,42.9,41.2,43.7,COM3,2025-08-04_13h35.39.063,2024_RDpaindiscrimination_maintask,2023.2.3,59.98109394789935,2025-08-04 13h35.54.151230 -0400,
1,0,1,0,,,,,1,0,1,0,,,,,0,0,0,0,1491.9690142000327,,,,,,,,,,,,,0,active,,,,,,,,,,,,,,,,1490.2047967000399,1491.9525987000088,1491.9529026999953,1496.9525482000317,1496.9525548000238,1496.9690695999889,1504.952500400017,1504.952500400017,1507.9191599999904,1507.9525030000368,1507.9525030000368,1507.9359997000429,3.36,5.44,336,544,8,1.2,0.75,pic-absent,0,n,1.2363985999836586,None,,,,,sub-062,42.9,41.2,43.7,COM3,2025-08-04_13h35.39.063,2024_RDpaindiscrimination_maintask,2023.2.3,59.98109394789935,2025-08-04 13h35.54.151230 -0400,
1,0,1,0,,,,,1,0,1,0,,,,,1,0,1,0,1507.9525030000368,,,,,,,,,,,,,1,inactive,,,,,,,,,,,,,,,,,,1507.936532200023,1512.936022400041,1512.9360283000278,1512.9525598000037,1520.9359853999922,1520.9359853999922,1523.902800800046,1523.9360172000015,1523.9360172000015,1523.919543099997,4.72,4.08,472,408,8,1.2,0.75,pic-absent,0,n,1.5730178999947384,None,,,,,sub-062,42.9,41.2,43.7,COM3,2025-08-04_13h35.39.063,2024_RDpaindiscrimination_maintask,2023.2.3,59.98109394789935,2025-08-04 13h35.54.151230 -0400,
1,0,1,0,,,,,1,0,1,0,,,,,2,0,2,0,1523.9360172000015,,,,,,,,,,,,,2,active,,,,,,,,,,,,,,,,,,1523.920006200031,1528.9195028000395,1528.91950920003,1528.9360761000426,1536.9195257000392,1536.9195257000392,1539.8862082000123,1539.9195455000154,1539.9195455000154,1539.9030435000313,4.49,4.31,449,430,8,1.2,0.75,pic-present,1,m,1.3858817999716848,None,,,,,sub-062,42.9,41.2,43.7,COM3,2025-08-04_13h35.39.063,2024_RDpaindiscrimination_maintask,2023.2.3,59.98109394789935,2025-08-04 13h35.54.151230 -0400,
1,0,1,0,,,,,1,0,1,0,,,,,3,0,3,0,1539.9195455000154,,,,,,,,,,,,,3,active,,,,,,,,,,,,,,,,,,1539.903527699993,1544.9030472000013,1544.9030539999949,1544.9196006000275,1552.903083000041,1552.903083000041,1555.869737400033,1555.9030571000185,1555.9030571000185,1555.8866123000043,4.7,4.1,470,409,8,1.2,0.75,pic-absent,0,n,1.1061681999708526,None,,,,,sub-062,42.9,41.2,43.7,COM3,2025-08-04_13h35.39.063,2024_RDpaindiscrimination_maintask,2023.2.3,59.98109394789935,2025-08-04 13h35.54.151230 -0400,
1,0,1,0,,,,,2,0,2,0,0,0,0,0,,,,,1556.7697312000091,,,,,,1555.8870820000302,1556.753316599992,,,,,,0,active,42.9,1573.7535783000058,1577.0727142000105,21.00000000000014,3.299,,,,,1556.7535995999933,1561.7532658000127,1561.7532729000086,1561.7697882000357,1573.786634900025,1573.7535706000053,,,,,,,,,,,,,,,,,,,,,,,,,,,,,sub-062,42.9,41.2,43.7,COM3,2025-08-04_13h35.39.063,2024_RDpaindiscrimination_maintask,2023.2.3,59.98109394789935,2025-08-04 13h35.54.151230 -0400,
1,0,1,0,,,,,2,0,2,0,1,0,1,0,,,,,1577.0867008999921,,,,,,,,,,,,,1,inactive,42.9,1594.0704914000235,1597.7217043000273,36.50000000000005,3.631,,,,,1577.0734961000271,1582.0701551000238,1582.0701620000182,1582.0867351000197,1594.103601000039,1594.0704840000253,,,,,,,,,,,,,,,,,,,,,,,,,,,,,sub-062,42.9,41.2,43.7,COM3,2025-08-04_13h35.39.063,2024_RDpaindiscrimination_maintask,2023.2.3,59.98109394789935,2025-08-04 13h35.54.151230 -0400,
1,0,1,0,,,,,2,0,2,0,,,,,0,0,0,0,1598.9535737000406,,,,,,,,,,,,,2,inactive,,,,,,,,,,,,,,,,1597.722196000046,1598.937129500031,1598.9374387999997,1603.9370643000002,1603.937070300046,1603.953607000003,1611.9370322999894,1611.9370322999894,1614.9036938000354,1614.9370303000323,1614.9370303000323,1614.9207304000156,4.13,4.67,413,467,8,1.2,0.75,pic-absent,0,n,1.1277609000098892,None,,,,,sub-062,42.9,41.2,43.7,COM3,2025-08-04_13h35.39.063,2024_RDpaindiscrimination_maintask,2023.2.3,59.98109394789935,2025-08-04 13h35.54.151230 -0400,
1,0,1,0,,,,,2,0,2,0,,,,,1,0,1,0,1614.9370303000323,,,,,,,,,,,,,3,active,,,,,,,,,,,,,,,,,,1614.921264500008,1619.920600900019,1619.9206078000134,1619.937114200031,1627.920548700029,1627.920548700029,1630.887251600041,1630.9205799000338,1630.9205799000338,1630.9040671000257,3.85,4.95,385,495,8,1.2,0.75,pic-present,1,m,1.0927503000129946,None,,,,,sub-062,42.9,41.2,43.7,COM3,2025-08-04_13h35.39.063,2024_RDpaindiscrimination_maintask,2023.2.3,59.98109394789935,2025-08-04 13h35.54.151230 -0400,
1,0,1,0,,,,,2,0,2,0,,,,,2,0,2,0,1630.9205799000338,,,,,,,,,,,,,0,inactive,,,,,,,,,,,,,,,,,,1630.904519200034,1635.904132399999,1635.9041389999911,1635.9206423000433,1643.9040592000238,1643.9040592000238,1646.8708096999908,1646.904135400022,1646.904135400022,1646.8876461000182,3.95,4.85,395,484,8,1.2,0.75,pic-present,1,m,1.2529565999866463,None,,,,,sub-062,42.9,41.2,43.7,COM3,2025-08-04_13h35.39.063,2024_RDpaindiscrimination_maintask,2023.2.3,59.98109394789935,2025-08-04 13h35.54.151230 -0400,
1,0,1,0,,,,,2,0,2,0,,,,,3,0,3,0,1646.904135400022,,,,,,,,,,,,,1,inactive,,,,,,,,,,,,,,,,,,1646.8881388000445,1651.8876597000053,1651.8876660999958,1651.9041899000295,1659.8876693000202,1659.8876693000202,1662.854316300014,1662.887664000038,1662.887664000038,1662.8711743000313,4.44,4.36,444,436,8,1.2,0.75,pic-absent,0,n,1.2824821000103839,None,,,,,sub-062,42.9,41.2,43.7,COM3,2025-08-04_13h35.39.063,2024_RDpaindiscrimination_maintask,2023.2.3,59.98109394789935,2025-08-04 13h35.54.151230 -0400,
1,0,1,0,,,,,3,0,3,0,0,0,0,0,,,,,1664.48814760003,,,,,,1662.8716694000177,1664.4713462000364,,,,,,2,inactive,42.9,1681.4715123000205,1684.8063767999993,57.9999999999999,3.314,,,,,1664.4716441000346,1669.4712243000395,1669.47123309999,1669.487729799992,1681.504539799993,1681.471503800014,,,,,,,,,,,,,,,,,,,,,,,,,,,,,sub-062,42.9,41.2,43.7,COM3,2025-08-04_13h35.39.063,2024_RDpaindiscrimination_maintask,2023.2.3,59.98109394789935,2025-08-04 13h35.54.151230 -0400,
1,0,1,0,,,,,3,0,3,0,1,0,1,0,,,,,1684.8214890999952,,,,,,,,,,,,,3,active,42.9,1701.8050811000285,1704.5739905000082,34.49999999999995,2.749,,,,,1684.8071291000233,1689.804776700039,1689.8047827000264,1689.8212970999884,1701.8380736000254,1701.8050736000296,,,,,,,,,,,,,,,,,,,,,,,,,,,,,sub-062,42.9,41.2,43.7,COM3,2025-08-04_13h35.39.063,2024_RDpaindiscrimination_maintask,2023.2.3,59.98109394789935,2025-08-04 13h35.54.151230 -0400,
1,0,1,0,,,,,3,0,3,0,,,,,0,0,0,0,1705.8880995000363,,,,,,,,,,,,,0,active,,,,,,,,,,,,,,,,1704.574501199997,1705.8716982000042,1705.8720327999908,1710.8716943000327,1710.871700800024,1710.8882068000385,1718.8716391000198,1718.8716391000198,1721.8383256000234,1721.8716673000017,1721.8716673000017,1721.855208199995,4.0,4.8,400,480,8,1.2,0.75,pic-present,0,n,1.1369982000323944,None,,,,,sub-062,42.9,41.2,43.7,COM3,2025-08-04_13h35.39.063,2024_RDpaindiscrimination_maintask,2023.2.3,59.98109394789935,2025-08-04 13h35.54.151230 -0400,
1,0,1,0,,,,,3,0,3,0,,,,,1,0,1,0,1721.8716673000017,,,,,,,,,,,,,1,inactive,,,,,,,,,,,,,,,,,,1721.855787300039,1726.8551903000334,1726.8551972000278,1726.8717199999955,1734.8551658000215,1734.8551658000215,1737.8218488999992,1737.8551829000353,1737.8551829000353,1737.8386712000356,3.51,5.29,351,529,8,1.2,0.75,pic-present,1,m,1.0899799999897368,None,,,,,sub-062,42.9,41.2,43.7,COM3,2025-08-04_13h35.39.063,2024_RDpaindiscrimination_maintask,2023.2.3,59.98109394789935,2025-08-04 13h35.54.151230 -0400,
1,0,1,0,,,,,3,0,3,0,,,,,2,0,2,0,1737.8551829000353,,,,,,,,,,,,,2,inactive,,,,,,,,,,,,,,,,,,1737.83916209999,1742.8386733999941,1742.8386798000429,1742.8552432000288,1750.838659400004,1750.838659400004,1753.8053845000104,1753.838698800013,1753.838698800013,1753.822193400003,3.9,4.9,390,490,8,1.2,0.75,pic-absent,0,n,1.181821099948138,None,,,,,sub-062,42.9,41.2,43.7,COM3,2025-08-04_13h35.39.063,2024_RDpaindiscrimination_maintask,2023.2.3,59.98109394789935,2025-08-04 13h35.54.151230 -0400,
1,0,1,0,,,,,3,0,3,0,,,,,3,0,3,0,1753.838698800013,,,,,,,,,,,,,3,active,,,,,,,,,,,,,,,,,,1753.822667200002,1758.8222210000386,1758.822228300036,1758.8387652999954,1766.8221817000303,1766.8221817000303,1769.7889330000035,1769.822212900035,1769.822212900035,1769.8057099000434,4.4,4.4,440,440,8,1.2,0.75,pic-present,0,n,1.2704166999901645,None,,,,,sub-062,42.9,41.2,43.7,COM3,2025-08-04_13h35.39.063,2024_RDpaindiscrimination_maintask,2023.2.3,59.98109394789935,2025-08-04 13h35.54.151230 -0400,
,,,,,,,,,,,,,,,,,,,,,,,,,,,,,,,,,,,,,,,,,,,,,,,,,,,,,,,,,,,,,,,,,,,,,,,,,,1769.8061720000114,1771.324913199991,1771.3249321000185,1781.3224346000352,,,,,,,,,,,
