participant,condition,pic_presence,pic_response,trials.thisN,loop_eval_discri.thisN,loop_discri.thisRepN,actual_trial,accuracy,detection_type,exclude
sub-007,inactive,pic-absent,0,0.0,0.0,0.0,9,1,correct rejection,0
sub-007,inactive,pic-absent,1,0.0,0.0,1.0,9,0,false alarm,0
sub-007,active,pic-present,1,0.0,0.0,2.0,9,1,hit,0
sub-007,active,pic-absent,0,0.0,0.0,3.0,9,1,correct rejection,0
sub-007,inactive,pic-present,1,0.0,1.0,0.0,10,1,hit,0
sub-007,active,pic-absent,0,0.0,1.0,1.0,10,1,correct rejection,0
sub-007,inactive,pic-present,1,0.0,1.0,2.0,10,1,hit,0
sub-007,inactive,pic-absent,0,0.0,1.0,3.0,10,1,correct rejection,0
sub-007,active,pic-present,1,0.0,2.0,0.0,11,1,hit,0
sub-007,active,pic-present,1,0.0,2.0,1.0,11,1,hit,0
sub-007,inactive,pic-absent,0,0.0,2.0,2.0,11,1,correct rejection,0
sub-007,inactive,pic-present,1,0.0,2.0,3.0,11,1,hit,0
sub-007,active,pic-absent,0,0.0,3.0,0.0,12,1,correct rejection,0
sub-007,inactive,pic-present,1,0.0,3.0,1.0,12,1,hit,0
sub-007,active,pic-absent,0,0.0,3.0,2.0,12,1,correct rejection,0
sub-007,active,pic-present,1,0.0,3.0,3.0,12,1,hit,0
sub-007,active,pic-present,1,1.0,0.0,0.0,21,1,hit,0
sub-007,inactive,pic-absent,0,1.0,0.0,1.0,21,1,correct rejection,0
sub-007,inactive,pic-present,1,1.0,0.0,2.0,21,1,hit,0
sub-007,active,pic-absent,0,1.0,0.0,3.0,21,1,correct rejection,0
sub-007,inactive,pic-present,1,1.0,1.0,0.0,22,1,hit,0
sub-007,active,pic-absent,0,1.0,1.0,1.0,22,1,correct rejection,0
sub-007,active,pic-present,1,1.0,1.0,2.0,22,1,hit,0
sub-007,inactive,pic-absent,0,1.0,1.0,3.0,22,1,correct rejection,0
sub-007,active,pic-absent,0,1.0,2.0,0.0,23,1,correct rejection,0
sub-007,active,pic-present,1,1.0,2.0,1.0,23,1,hit,0
sub-007,inactive,pic-absent,0,1.0,2.0,2.0,23,1,correct rejection,0
sub-007,active,pic-present,1,1.0,2.0,3.0,23,1,hit,0
sub-007,inactive,pic-absent,0,1.0,3.0,0.0,24,1,correct rejection,0
sub-007,inactive,pic-present,1,1.0,3.0,1.0,24,1,hit,0
sub-007,active,pic-absent,0,1.0,3.0,2.0,24,1,correct rejection,0
sub-007,inactive,pic-present,1,1.0,3.0,3.0,24,1,hit,0
sub-010,active,pic-present,1,0.0,0.0,0.0,9,1,hit,0
sub-010,active,pic-present,1,0.0,0.0,1.0,9,1,hit,0
sub-010,inactive,pic-absent,1,0.0,0.0,2.0,9,0,false alarm,0
sub-010,inactive,pic-present,1,0.0,0.0,3.0,9,1,hit,0
sub-010,active,pic-absent,1,0.0,1.0,0.0,10,0,false alarm,0
sub-010,inactive,pic-absent,0,0.0,1.0,1.0,10,1,correct rejection,0
sub-010,active,pic-present,1,0.0,1.0,2.0,10,1,hit,0
sub-010,active,pic-absent,1,0.0,1.0,3.0,10,0,false alarm,0
sub-010,inactive,pic-absent,1,0.0,2.0,0.0,11,0,false alarm,0
sub-010,inactive,pic-present,1,0.0,2.0,1.0,11,1,hit,0
sub-010,active,pic-absent,1,0.0,2.0,2.0,11,0,false alarm,0
sub-010,inactive,pic-absent,0,0.0,2.0,3.0,11,1,correct rejection,0
sub-010,inactive,pic-present,1,0.0,3.0,0.0,12,1,hit,0
sub-010,active,pic-absent,0,0.0,3.0,1.0,12,1,correct rejection,0
sub-010,inactive,pic-present,1,0.0,3.0,2.0,12,1,hit,0
sub-010,active,pic-present,1,0.0,3.0,3.0,12,1,hit,0
sub-010,inactive,pic-absent,1,1.0,0.0,0.0,21,0,false alarm,0
sub-010,active,pic-absent,1,1.0,0.0,1.0,21,0,false alarm,0
sub-010,inactive,pic-present,1,1.0,0.0,2.0,21,1,hit,0
sub-010,inactive,pic-absent,0,1.0,0.0,3.0,21,1,correct rejection,0
sub-010,active,pic-present,1,1.0,1.0,0.0,22,1,hit,0
sub-010,active,pic-present,1,1.0,1.0,1.0,22,1,hit,0
sub-010,inactive,pic-absent,1,1.0,1.0,2.0,22,0,false alarm,0
sub-010,active,pic-present,1,1.0,1.0,3.0,22,1,hit,0
sub-010,inactive,pic-present,1,1.0,2.0,0.0,23,1,hit,0
sub-010,inactive,pic-absent,0,1.0,2.0,1.0,23,1,correct rejection,0
sub-010,active,pic-absent,1,1.0,2.0,2.0,23,0,false alarm,0
sub-010,inactive,pic-present,1,1.0,2.0,3.0,23,1,hit,0
sub-010,active,pic-absent,1,1.0,3.0,0.0,24,0,false alarm,0
sub-010,inactive,pic-present,1,1.0,3.0,1.0,24,1,hit,0
sub-010,active,pic-present,1,1.0,3.0,2.0,24,1,hit,0
sub-010,active,pic-absent,1,1.0,3.0,3.0,24,0,false alarm,0
sub-012,active,pic-absent,0,0.0,0.0,0.0,9,1,correct rejection,0
sub-012,inactive,pic-present,1,0.0,0.0,1.0,9,1,hit,0
sub-012,active,pic-absent,1,0.0,0.0,2.0,9,0,false alarm,0
sub-012,active,pic-present,1,0.0,0.0,3.0,9,1,hit,0
sub-012,inactive,pic-absent,1,0.0,1.0,0.0,10,0,false alarm,0
sub-012,active,pic-absent,1,0.0,1.0,1.0,10,0,false alarm,0
sub-012,inactive,pic-present,0,0.0,1.0,2.0,10,0,miss,0
sub-012,active,pic-absent,1,0.0,1.0,3.0,10,0,false alarm,0
sub-012,inactive,pic-present,1,0.0,2.0,0.0,11,1,hit,0
sub-012,active,pic-present,1,0.0,2.0,1.0,11,1,hit,0
sub-012,inactive,pic-absent,1,0.0,2.0,2.0,11,0,false alarm,0
sub-012,inactive,pic-absent,0,0.0,2.0,3.0,11,1,correct rejection,0
sub-012,active,pic-present,1,0.0,3.0,0.0,12,1,hit,0
sub-012,inactive,pic-absent,0,0.0,3.0,1.0,12,1,correct rejection,0
sub-012,active,pic-present,1,0.0,3.0,2.0,12,1,hit,0
sub-012,inactive,pic-present,1,0.0,3.0,3.0,12,1,hit,0
sub-012,inactive,pic-present,1,1.0,0.0,0.0,21,1,hit,0
sub-012,active,pic-absent,1,1.0,0.0,1.0,21,0,false alarm,0
sub-012,inactive,pic-present,1,1.0,0.0,2.0,21,1,hit,0
sub-012,active,pic-absent,0,1.0,0.0,3.0,21,1,correct rejection,0
sub-012,active,pic-present,1,1.0,1.0,0.0,22,1,hit,0
sub-012,inactive,pic-absent,0,1.0,1.0,1.0,22,1,correct rejection,0
sub-012,inactive,pic-absent,1,1.0,1.0,2.0,22,0,false alarm,0
sub-012,active,pic-present,1,1.0,1.0,3.0,22,1,hit,0
sub-012,active,pic-absent,1,1.0,2.0,0.0,23,0,false alarm,0
sub-012,inactive,pic-present,1,1.0,2.0,1.0,23,1,hit,0
sub-012,active,pic-absent,0,1.0,2.0,2.0,23,1,correct rejection,0
sub-012,inactive,pic-present,1,1.0,2.0,3.0,23,1,hit,0
sub-012,inactive,pic-absent,0,1.0,3.0,0.0,24,1,correct rejection,0
sub-012,active,pic-present,1,1.0,3.0,1.0,24,1,hit,0
sub-012,active,pic-present,1,1.0,3.0,2.0,24,1,hit,0
sub-012,inactive,pic-absent,0,1.0,3.0,3.0,24,1,correct rejection,0
sub-013,inactive,pic-absent,0,0.0,0.0,0.0,9,1,correct rejection,1
sub-013,active,pic-present,1,0.0,0.0,1.0,9,1,hit,1
sub-013,inactive,pic-absent,0,0.0,0.0,2.0,9,1,correct rejection,1
sub-013,active,pic-present,1,0.0,0.0,3.0,9,1,hit,1
sub-013,active,pic-absent,1,0.0,1.0,0.0,10,0,false alarm,1
sub-013,inactive,pic-present,1,0.0,1.0,1.0,10,1,hit,1
sub-013,active,pic-present,1,0.0,1.0,2.0,10,1,hit,1
sub-013,inactive,pic-absent,0,0.0,1.0,3.0,10,1,correct rejection,1
sub-013,inactive,pic-absent,0,0.0,2.0,1.0,11,1,correct rejection,1
sub-013,inactive,pic-present,1,0.0,2.0,2.0,11,1,hit,1
sub-013,active,pic-absent,0,0.0,2.0,3.0,11,1,correct rejection,1
sub-013,inactive,pic-present,1,0.0,3.0,0.0,12,1,hit,1
sub-013,active,pic-absent,0,0.0,3.0,1.0,12,1,correct rejection,1
sub-013,active,pic-absent,1,0.0,3.0,2.0,12,0,false alarm,1
sub-013,inactive,pic-present,0,0.0,3.0,3.0,12,0,miss,1
sub-013,active,pic-absent,0,1.0,0.0,0.0,21,1,correct rejection,1
sub-013,inactive,pic-absent,0,1.0,0.0,1.0,21,1,correct rejection,1
sub-013,active,pic-present,1,1.0,0.0,2.0,21,1,hit,1
sub-013,inactive,pic-present,1,1.0,0.0,3.0,21,1,hit,1
sub-013,inactive,pic-absent,1,1.0,1.0,0.0,22,0,false alarm,1
sub-013,active,pic-present,0,1.0,1.0,1.0,22,0,miss,1
sub-013,inactive,pic-absent,1,1.0,1.0,2.0,22,0,false alarm,1
sub-013,active,pic-present,1,1.0,1.0,3.0,22,1,hit,1
sub-013,inactive,pic-present,1,1.0,2.0,0.0,23,1,hit,1
sub-013,active,pic-absent,1,1.0,2.0,1.0,23,0,false alarm,1
sub-013,inactive,pic-present,1,1.0,2.0,2.0,23,1,hit,1
sub-013,active,pic-absent,0,1.0,2.0,3.0,23,1,correct rejection,1
sub-013,active,pic-present,1,1.0,3.0,0.0,24,1,hit,1
sub-013,inactive,pic-present,1,1.0,3.0,1.0,24,1,hit,1
sub-013,active,pic-absent,0,1.0,3.0,2.0,24,1,correct rejection,1
sub-013,inactive,pic-absent,1,1.0,3.0,3.0,24,0,false alarm,1
sub-014,inactive,pic-present,1,0.0,0.0,0.0,9,1,hit,0
sub-014,inactive,pic-absent,1,0.0,0.0,1.0,9,0,false alarm,0
sub-014,active,pic-present,1,0.0,0.0,2.0,9,1,hit,0
sub-014,inactive,pic-absent,1,0.0,1.0,0.0,10,0,false alarm,0
sub-014,active,pic-absent,0,0.0,1.0,1.0,10,1,correct rejection,0
sub-014,inactive,pic-present,0,0.0,1.0,2.0,10,0,miss,0
sub-014,active,pic-present,1,0.0,1.0,3.0,10,1,hit,0
sub-014,active,pic-absent,1,0.0,2.0,0.0,11,0,false alarm,0
sub-014,inactive,pic-present,1,0.0,2.0,1.0,11,1,hit,0
sub-014,active,pic-absent,1,0.0,2.0,2.0,11,0,false alarm,0
sub-014,inactive,pic-absent,1,0.0,2.0,3.0,11,0,false alarm,0
sub-014,active,pic-present,1,0.0,3.0,0.0,12,1,hit,0
sub-014,active,pic-present,1,0.0,3.0,1.0,12,1,hit,0
sub-014,active,pic-absent,1,0.0,3.0,3.0,12,0,false alarm,0
sub-014,inactive,pic-absent,1,1.0,0.0,0.0,21,0,false alarm,0
sub-014,active,pic-present,1,1.0,0.0,1.0,21,1,hit,0
sub-014,inactive,pic-present,1,1.0,0.0,2.0,21,1,hit,0
sub-014,inactive,pic-absent,0,1.0,0.0,3.0,21,1,correct rejection,0
sub-014,active,pic-absent,1,1.0,1.0,0.0,22,0,false alarm,0
sub-014,inactive,pic-present,1,1.0,1.0,1.0,22,1,hit,0
sub-014,active,pic-present,1,1.0,1.0,2.0,22,1,hit,0
sub-014,active,pic-absent,1,1.0,1.0,3.0,22,0,false alarm,0
sub-014,inactive,pic-present,1,1.0,2.0,0.0,23,1,hit,0
sub-014,active,pic-absent,1,1.0,2.0,1.0,23,0,false alarm,0
sub-014,active,pic-absent,1,1.0,2.0,2.0,23,0,false alarm,0
sub-014,inactive,pic-present,1,1.0,2.0,3.0,23,1,hit,0
sub-014,active,pic-present,1,1.0,3.0,0.0,24,1,hit,0
sub-014,inactive,pic-absent,0,1.0,3.0,1.0,24,1,correct rejection,0
sub-014,inactive,pic-absent,1,1.0,3.0,2.0,24,0,false alarm,0
sub-014,active,pic-present,1,1.0,3.0,3.0,24,1,hit,0
sub-0015,active,pic-absent,1,0.0,0.0,1.0,9,0,false alarm,0
sub-0015,active,pic-present,0,0.0,0.0,2.0,9,0,miss,0
sub-0015,inactive,pic-present,1,0.0,0.0,3.0,9,1,hit,0
sub-0015,active,pic-absent,0,0.0,1.0,0.0,10,1,correct rejection,0
sub-0015,inactive,pic-present,0,0.0,1.0,1.0,10,0,miss,0
sub-0015,inactive,pic-present,0,0.0,1.0,2.0,10,0,miss,0
sub-0015,active,pic-absent,1,0.0,1.0,3.0,10,0,false alarm,0
sub-0015,inactive,pic-absent,1,0.0,2.0,0.0,11,0,false alarm,0
sub-0015,active,pic-present,1,0.0,2.0,1.0,11,1,hit,0
sub-0015,inactive,pic-absent,0,0.0,2.0,2.0,11,1,correct rejection,0
sub-0015,active,pic-present,1,0.0,2.0,3.0,11,1,hit,0
sub-0015,active,pic-present,0,0.0,3.0,0.0,12,0,miss,0
sub-0015,inactive,pic-absent,1,0.0,3.0,1.0,12,0,false alarm,0
sub-0015,active,pic-absent,1,0.0,3.0,2.0,12,0,false alarm,0
sub-0015,inactive,pic-absent,1,0.0,3.0,3.0,12,0,false alarm,0
sub-0015,inactive,pic-absent,0,1.0,0.0,0.0,21,1,correct rejection,0
sub-0015,active,pic-present,1,1.0,0.0,1.0,21,1,hit,0
sub-0015,inactive,pic-absent,1,1.0,0.0,2.0,21,0,false alarm,0
sub-0015,inactive,pic-present,1,1.0,0.0,3.0,21,1,hit,0
sub-0015,active,pic-absent,0,1.0,1.0,0.0,22,1,correct rejection,0
sub-0015,inactive,pic-present,1,1.0,1.0,1.0,22,1,hit,0
sub-0015,active,pic-absent,1,1.0,1.0,2.0,22,0,false alarm,0
sub-0015,inactive,pic-absent,0,1.0,1.0,3.0,22,1,correct rejection,0
sub-0015,active,pic-present,1,1.0,2.0,0.0,23,1,hit,0
sub-0015,inactive,pic-absent,1,1.0,2.0,1.0,23,0,false alarm,0
sub-0015,active,pic-present,0,1.0,2.0,2.0,23,0,miss,0
sub-0015,active,pic-absent,1,1.0,2.0,3.0,23,0,false alarm,0
sub-0015,inactive,pic-present,1,1.0,3.0,0.0,24,1,hit,0
sub-0015,active,pic-absent,0,1.0,3.0,1.0,24,1,correct rejection,0
sub-0015,inactive,pic-present,0,1.0,3.0,2.0,24,0,miss,0
sub-0015,active,pic-present,1,1.0,3.0,3.0,24,1,hit,0
sub-016,active,pic-absent,0,0.0,0.0,0.0,9,1,correct rejection,0
sub-016,active,pic-absent,0,0.0,0.0,1.0,9,1,correct rejection,0
sub-016,inactive,pic-present,1,0.0,0.0,2.0,9,1,hit,0
sub-016,active,pic-absent,0,0.0,0.0,3.0,9,1,correct rejection,0
sub-016,active,pic-present,1,0.0,1.0,0.0,10,1,hit,0
sub-016,inactive,pic-absent,0,0.0,1.0,1.0,10,1,correct rejection,0
sub-016,active,pic-absent,0,0.0,1.0,2.0,10,1,correct rejection,0
sub-016,active,pic-present,1,0.0,1.0,3.0,10,1,hit,0
sub-016,inactive,pic-absent,0,0.0,2.0,0.0,11,1,correct rejection,0
sub-016,inactive,pic-present,1,0.0,2.0,1.0,11,1,hit,0
sub-016,active,pic-present,1,0.0,2.0,2.0,11,1,hit,0
sub-016,inactive,pic-absent,1,0.0,2.0,3.0,11,0,false alarm,0
sub-016,inactive,pic-present,1,0.0,3.0,0.0,12,1,hit,0
sub-016,active,pic-present,1,0.0,3.0,1.0,12,1,hit,0
sub-016,inactive,pic-absent,0,0.0,3.0,2.0,12,1,correct rejection,0
sub-016,inactive,pic-present,1,0.0,3.0,3.0,12,1,hit,0
sub-016,inactive,pic-present,1,1.0,0.0,0.0,21,1,hit,0
sub-016,inactive,pic-absent,1,1.0,0.0,1.0,21,0,false alarm,0
sub-016,active,pic-present,1,1.0,0.0,2.0,21,1,hit,0
sub-016,inactive,pic-absent,0,1.0,0.0,3.0,21,1,correct rejection,0
sub-016,active,pic-absent,0,1.0,1.0,0.0,22,1,correct rejection,0
sub-016,active,pic-present,1,1.0,1.0,1.0,22,1,hit,0
sub-016,inactive,pic-absent,1,1.0,1.0,2.0,22,0,false alarm,0
sub-016,active,pic-present,1,1.0,1.0,3.0,22,1,hit,0
sub-016,inactive,pic-absent,1,1.0,2.0,0.0,23,0,false alarm,0
sub-016,inactive,pic-present,1,1.0,2.0,1.0,23,1,hit,0
sub-016,active,pic-absent,0,1.0,2.0,2.0,23,1,correct rejection,0
sub-016,inactive,pic-present,1,1.0,2.0,3.0,23,1,hit,0
sub-016,active,pic-present,1,1.0,3.0,0.0,24,1,hit,0
sub-016,inactive,pic-present,1,1.0,3.0,2.0,24,1,hit,0
sub-016,active,pic-absent,0,1.0,3.0,3.0,24,1,correct rejection,0
sub-017,inactive,pic-present,1,0.0,0.0,0.0,9,1,hit,1
sub-017,active,pic-absent,0,0.0,0.0,1.0,9,1,correct rejection,1
sub-017,inactive,pic-present,1,0.0,0.0,2.0,9,1,hit,1
sub-017,active,pic-absent,0,0.0,0.0,3.0,9,1,correct rejection,1
sub-017,active,pic-present,1,0.0,1.0,0.0,10,1,hit,1
sub-017,inactive,pic-absent,0,0.0,1.0,1.0,10,1,correct rejection,1
sub-017,active,pic-present,1,0.0,1.0,2.0,10,1,hit,1
sub-017,inactive,pic-present,1,0.0,1.0,3.0,10,1,hit,1
sub-017,active,pic-absent,0,0.0,2.0,0.0,11,1,correct rejection,1
sub-017,active,pic-present,1,0.0,2.0,1.0,11,1,hit,1
sub-017,inactive,pic-absent,0,0.0,2.0,2.0,11,1,correct rejection,1
sub-017,active,pic-present,1,0.0,2.0,3.0,11,1,hit,1
sub-017,inactive,pic-absent,0,0.0,3.0,0.0,12,1,correct rejection,1
sub-017,inactive,pic-present,1,0.0,3.0,1.0,12,1,hit,1
sub-017,active,pic-absent,0,0.0,3.0,2.0,12,1,correct rejection,1
sub-017,inactive,pic-absent,0,0.0,3.0,3.0,12,1,correct rejection,1
sub-017,inactive,pic-present,1,1.0,0.0,0.0,21,1,hit,1
sub-017,active,pic-absent,0,1.0,0.0,1.0,21,1,correct rejection,1
sub-017,inactive,pic-present,1,1.0,0.0,2.0,21,1,hit,1
sub-017,active,pic-absent,0,1.0,0.0,3.0,21,1,correct rejection,1
sub-017,inactive,pic-absent,0,1.0,1.0,0.0,22,1,correct rejection,1
sub-017,active,pic-present,1,1.0,1.0,1.0,22,1,hit,1
sub-017,active,pic-absent,0,1.0,1.0,2.0,22,1,correct rejection,1
sub-017,inactive,pic-absent,0,1.0,1.0,3.0,22,1,correct rejection,1
sub-017,active,pic-present,1,1.0,2.0,0.0,23,1,hit,1
sub-017,inactive,pic-absent,0,1.0,2.0,1.0,23,1,correct rejection,1
sub-017,inactive,pic-absent,0,1.0,2.0,2.0,23,1,correct rejection,1
sub-017,active,pic-present,1,1.0,2.0,3.0,23,1,hit,1
sub-017,active,pic-absent,0,1.0,3.0,0.0,24,1,correct rejection,1
sub-017,inactive,pic-present,1,1.0,3.0,1.0,24,1,hit,1
sub-017,active,pic-present,1,1.0,3.0,2.0,24,1,hit,1
sub-017,inactive,pic-present,1,1.0,3.0,3.0,24,1,hit,1
sub-018,active,pic-present,1,0.0,0.0,0.0,9,1,hit,0
sub-018,inactive,pic-absent,0,0.0,0.0,1.0,9,1,correct rejection,0
sub-018,active,pic-absent,0,0.0,0.0,2.0,9,1,correct rejection,0
sub-018,active,pic-present,1,0.0,0.0,3.0,9,1,hit,0
sub-018,inactive,pic-absent,0,0.0,1.0,0.0,10,1,correct rejection,0
sub-018,active,pic-present,1,0.0,1.0,1.0,10,1,hit,0
sub-018,active,pic-present,1,0.0,1.0,2.0,10,1,hit,0
sub-018,inactive,pic-absent,0,0.0,1.0,3.0,10,1,correct rejection,0
sub-018,inactive,pic-present,1,0.0,2.0,0.0,11,1,hit,0
sub-018,active,pic-absent,0,0.0,2.0,1.0,11,1,correct rejection,0
sub-018,inactive,pic-present,1,0.0,2.0,2.0,11,1,hit,0
sub-018,active,pic-absent,0,0.0,2.0,3.0,11,1,correct rejection,0
sub-018,active,pic-absent,0,0.0,3.0,0.0,12,1,correct rejection,0
sub-018,inactive,pic-present,1,0.0,3.0,1.0,12,1,hit,0
sub-018,inactive,pic-absent,1,0.0,3.0,2.0,12,0,false alarm,0
sub-018,inactive,pic-present,0,0.0,3.0,3.0,12,0,miss,0
sub-018,inactive,pic-absent,0,1.0,0.0,0.0,21,1,correct rejection,0
sub-018,active,pic-present,1,1.0,0.0,1.0,21,1,hit,0
sub-018,inactive,pic-absent,0,1.0,0.0,2.0,21,1,correct rejection,0
sub-018,inactive,pic-present,1,1.0,0.0,3.0,21,1,hit,0
sub-018,active,pic-absent,1,1.0,1.0,0.0,22,0,false alarm,0
sub-018,inactive,pic-absent,1,1.0,1.0,1.0,22,0,false alarm,0
sub-018,inactive,pic-present,1,1.0,1.0,2.0,22,1,hit,0
sub-018,active,pic-absent,0,1.0,1.0,3.0,22,1,correct rejection,0
sub-018,inactive,pic-present,1,1.0,2.0,0.0,23,1,hit,0
sub-018,active,pic-absent,0,1.0,2.0,1.0,23,1,correct rejection,0
sub-018,active,pic-present,0,1.0,2.0,2.0,23,0,miss,0
sub-018,inactive,pic-absent,0,1.0,2.0,3.0,23,1,correct rejection,0
sub-018,active,pic-present,1,1.0,3.0,0.0,24,1,hit,0
sub-018,inactive,pic-present,1,1.0,3.0,1.0,24,1,hit,0
sub-018,active,pic-absent,0,1.0,3.0,2.0,24,1,correct rejection,0
sub-018,active,pic-present,0,1.0,3.0,3.0,24,0,miss,0
sub-019,inactive,pic-absent,0,0.0,0.0,0.0,9,1,correct rejection,1
sub-019,active,pic-present,1,0.0,0.0,1.0,9,1,hit,1
sub-019,inactive,pic-absent,0,0.0,0.0,2.0,9,1,correct rejection,1
sub-019,active,pic-absent,0,0.0,0.0,3.0,9,1,correct rejection,1
sub-019,inactive,pic-present,1,0.0,1.0,0.0,10,1,hit,1
sub-019,active,pic-absent,0,0.0,1.0,1.0,10,1,correct rejection,1
sub-019,active,pic-absent,0,0.0,1.0,2.0,10,1,correct rejection,1
sub-019,inactive,pic-present,1,0.0,1.0,3.0,10,1,hit,1
sub-019,active,pic-present,1,0.0,2.0,0.0,11,1,hit,1
sub-019,inactive,pic-absent,0,0.0,2.0,1.0,11,1,correct rejection,1
sub-019,active,pic-present,1,0.0,2.0,2.0,11,1,hit,1
sub-019,inactive,pic-absent,0,0.0,2.0,3.0,11,1,correct rejection,1
sub-019,active,pic-absent,0,0.0,3.0,0.0,12,1,correct rejection,1
sub-019,inactive,pic-present,1,0.0,3.0,1.0,12,1,hit,1
sub-019,inactive,pic-present,1,0.0,3.0,2.0,12,1,hit,1
sub-019,active,pic-present,1,0.0,3.0,3.0,12,1,hit,1
sub-019,active,pic-absent,0,1.0,0.0,0.0,21,1,correct rejection,1
sub-019,inactive,pic-absent,0,1.0,0.0,1.0,21,1,correct rejection,1
sub-019,active,pic-present,1,1.0,0.0,2.0,21,1,hit,1
sub-019,inactive,pic-absent,0,1.0,0.0,3.0,21,1,correct rejection,1
sub-019,inactive,pic-present,1,1.0,1.0,0.0,22,1,hit,1
sub-019,active,pic-absent,0,1.0,1.0,1.0,22,1,correct rejection,1
sub-019,inactive,pic-absent,0,1.0,1.0,2.0,22,1,correct rejection,1
sub-019,active,pic-present,1,1.0,1.0,3.0,22,1,hit,1
sub-019,inactive,pic-absent,0,1.0,2.0,0.0,23,1,correct rejection,1
sub-019,active,pic-present,1,1.0,2.0,1.0,23,1,hit,1
sub-019,inactive,pic-present,1,1.0,2.0,2.0,23,1,hit,1
sub-019,active,pic-absent,0,1.0,2.0,3.0,23,1,correct rejection,1
sub-019,active,pic-present,1,1.0,3.0,0.0,24,1,hit,1
sub-019,inactive,pic-present,1,1.0,3.0,1.0,24,1,hit,1
sub-019,active,pic-absent,0,1.0,3.0,2.0,24,1,correct rejection,1
sub-019,inactive,pic-present,1,1.0,3.0,3.0,24,1,hit,1
sub-020,inactive,pic-absent,1,0.0,0.0,0.0,9,0,false alarm,0
sub-020,inactive,pic-present,0,0.0,0.0,1.0,9,0,miss,0
sub-020,active,pic-absent,0,0.0,0.0,2.0,9,1,correct rejection,0
sub-020,inactive,pic-present,1,0.0,0.0,3.0,9,1,hit,0
sub-020,active,pic-absent,1,0.0,1.0,0.0,10,0,false alarm,0
sub-020,inactive,pic-absent,1,0.0,1.0,1.0,10,0,false alarm,0
sub-020,active,pic-present,0,0.0,1.0,2.0,10,0,miss,0
sub-020,inactive,pic-absent,1,0.0,1.0,3.0,10,0,false alarm,0
sub-020,active,pic-present,0,0.0,2.0,0.0,11,0,miss,0
sub-020,active,pic-present,0,0.0,2.0,1.0,11,0,miss,0
sub-020,inactive,pic-absent,1,0.0,2.0,2.0,11,0,false alarm,0
sub-020,active,pic-present,1,0.0,2.0,3.0,11,1,hit,0
sub-020,inactive,pic-present,1,0.0,3.0,0.0,12,1,hit,0
sub-020,active,pic-absent,0,0.0,3.0,1.0,12,1,correct rejection,0
sub-020,inactive,pic-present,0,0.0,3.0,2.0,12,0,miss,0
sub-020,active,pic-absent,0,0.0,3.0,3.0,12,1,correct rejection,0
sub-020,active,pic-absent,0,1.0,0.0,0.0,21,1,correct rejection,0
sub-020,inactive,pic-present,1,1.0,0.0,1.0,21,1,hit,0
sub-020,active,pic-absent,1,1.0,0.0,2.0,21,0,false alarm,0
sub-020,inactive,pic-present,1,1.0,0.0,3.0,21,1,hit,0
sub-020,active,pic-present,1,1.0,1.0,0.0,22,1,hit,0
sub-020,inactive,pic-absent,0,1.0,1.0,1.0,22,1,correct rejection,0
sub-020,active,pic-present,0,1.0,1.0,2.0,22,0,miss,0
sub-020,active,pic-absent,1,1.0,1.0,3.0,22,0,false alarm,0
sub-020,inactive,pic-present,1,1.0,2.0,0.0,23,1,hit,0
sub-020,active,pic-absent,0,1.0,2.0,1.0,23,1,correct rejection,0
sub-020,inactive,pic-present,1,1.0,2.0,2.0,23,1,hit,0
sub-020,active,pic-present,0,1.0,2.0,3.0,23,0,miss,0
sub-020,inactive,pic-absent,1,1.0,3.0,0.0,24,0,false alarm,0
sub-020,active,pic-present,0,1.0,3.0,1.0,24,0,miss,0
sub-020,inactive,pic-absent,0,1.0,3.0,2.0,24,1,correct rejection,0
sub-020,inactive,pic-absent,1,1.0,3.0,3.0,24,0,false alarm,0
sub-021,inactive,pic-present,1,0.0,0.0,0.0,9,1,hit,0
sub-021,active,pic-present,1,0.0,0.0,1.0,9,1,hit,0
sub-021,inactive,pic-absent,0,0.0,0.0,2.0,9,1,correct rejection,0
sub-021,active,pic-absent,0,0.0,0.0,3.0,9,1,correct rejection,0
sub-021,active,pic-present,0,0.0,1.0,0.0,10,0,miss,0
sub-021,inactive,pic-present,1,0.0,1.0,1.0,10,1,hit,0
sub-021,active,pic-absent,0,0.0,1.0,2.0,10,1,correct rejection,0
sub-021,inactive,pic-present,0,0.0,1.0,3.0,10,0,miss,0
sub-021,active,pic-absent,0,0.0,2.0,0.0,11,1,correct rejection,0
sub-021,inactive,pic-absent,0,0.0,2.0,1.0,11,1,correct rejection,0
sub-021,active,pic-present,0,0.0,2.0,2.0,11,0,miss,0
sub-021,active,pic-present,1,0.0,2.0,3.0,11,1,hit,0
sub-021,inactive,pic-absent,0,0.0,3.0,0.0,12,1,correct rejection,0
sub-021,active,pic-absent,0,0.0,3.0,1.0,12,1,correct rejection,0
sub-021,inactive,pic-present,1,0.0,3.0,2.0,12,1,hit,0
sub-021,inactive,pic-absent,0,0.0,3.0,3.0,12,1,correct rejection,0
sub-021,inactive,pic-present,0,1.0,0.0,0.0,21,0,miss,0
sub-021,inactive,pic-present,1,1.0,0.0,1.0,21,1,hit,0
sub-021,active,pic-absent,0,1.0,0.0,2.0,21,1,correct rejection,0
sub-021,inactive,pic-absent,0,1.0,0.0,3.0,21,1,correct rejection,0
sub-021,active,pic-present,1,1.0,1.0,0.0,22,1,hit,0
sub-021,active,pic-absent,0,1.0,1.0,1.0,22,1,correct rejection,0
sub-021,inactive,pic-present,0,1.0,1.0,2.0,22,0,miss,0
sub-021,inactive,pic-present,1,1.0,1.0,3.0,22,1,hit,0
sub-021,active,pic-absent,0,1.0,2.0,0.0,23,1,correct rejection,0
sub-021,inactive,pic-absent,0,1.0,2.0,1.0,23,1,correct rejection,0
sub-021,active,pic-present,1,1.0,2.0,2.0,23,1,hit,0
sub-021,active,pic-present,1,1.0,2.0,3.0,23,1,hit,0
sub-021,inactive,pic-absent,0,1.0,3.0,0.0,24,1,correct rejection,0
sub-021,active,pic-present,1,1.0,3.0,1.0,24,1,hit,0
sub-021,inactive,pic-absent,1,1.0,3.0,2.0,24,0,false alarm,0
sub-021,active,pic-absent,0,1.0,3.0,3.0,24,1,correct rejection,0
sub-022,active,pic-present,1,0.0,0.0,0.0,9,1,hit,1
sub-022,inactive,pic-absent,0,0.0,0.0,1.0,9,1,correct rejection,1
sub-022,active,pic-present,1,0.0,0.0,2.0,9,1,hit,1
sub-022,inactive,pic-absent,0,0.0,0.0,3.0,9,1,correct rejection,1
sub-022,inactive,pic-present,1,0.0,1.0,0.0,10,1,hit,1
sub-022,active,pic-absent,0,0.0,1.0,1.0,10,1,correct rejection,1
sub-022,inactive,pic-present,0,0.0,1.0,2.0,10,0,miss,1
sub-022,active,pic-absent,0,0.0,1.0,3.0,10,1,correct rejection,1
sub-022,inactive,pic-absent,0,0.0,2.0,0.0,11,1,correct rejection,1
sub-022,active,pic-present,1,0.0,2.0,1.0,11,1,hit,1
sub-022,inactive,pic-absent,0,0.0,2.0,2.0,11,1,correct rejection,1
sub-022,active,pic-present,0,0.0,2.0,3.0,11,0,miss,1
sub-022,active,pic-absent,0,0.0,3.0,0.0,12,1,correct rejection,1
sub-022,inactive,pic-present,1,0.0,3.0,1.0,12,1,hit,1
sub-022,active,pic-absent,0,0.0,3.0,2.0,12,1,correct rejection,1
sub-022,inactive,pic-present,1,0.0,3.0,3.0,12,1,hit,1
sub-022,active,pic-present,1,1.0,0.0,0.0,21,1,hit,1
sub-022,inactive,pic-absent,0,1.0,0.0,1.0,21,1,correct rejection,1
sub-022,inactive,pic-absent,0,1.0,0.0,2.0,21,1,correct rejection,1
sub-022,active,pic-present,0,1.0,0.0,3.0,21,0,miss,1
sub-022,inactive,pic-absent,0,1.0,1.0,0.0,22,1,correct rejection,1
sub-022,active,pic-present,0,1.0,1.0,1.0,22,0,miss,1
sub-022,inactive,pic-present,0,1.0,1.0,2.0,22,0,miss,1
sub-022,inactive,pic-absent,0,1.0,1.0,3.0,22,1,correct rejection,1
sub-022,active,pic-absent,0,1.0,2.0,0.0,23,1,correct rejection,1
sub-022,inactive,pic-present,1,1.0,2.0,1.0,23,1,hit,1
sub-022,active,pic-absent,0,1.0,2.0,2.0,23,1,correct rejection,1
sub-022,active,pic-absent,0,1.0,2.0,3.0,23,1,correct rejection,1
sub-022,inactive,pic-present,1,1.0,3.0,0.0,24,1,hit,1
sub-022,active,pic-absent,0,1.0,3.0,1.0,24,1,correct rejection,1
sub-022,active,pic-present,1,1.0,3.0,2.0,24,1,hit,1
sub-022,inactive,pic-present,1,1.0,3.0,3.0,24,1,hit,1
sub-023,active,pic-present,1,0.0,0.0,0.0,9,1,hit,0
sub-023,inactive,pic-absent,0,0.0,0.0,1.0,9,1,correct rejection,0
sub-023,inactive,pic-present,1,0.0,0.0,2.0,9,1,hit,0
sub-023,active,pic-present,1,0.0,0.0,3.0,9,1,hit,0
sub-023,inactive,pic-absent,0,0.0,1.0,0.0,10,1,correct rejection,0
sub-023,active,pic-present,1,0.0,1.0,1.0,10,1,hit,0
sub-023,active,pic-present,1,0.0,1.0,2.0,10,1,hit,0
sub-023,inactive,pic-absent,0,0.0,1.0,3.0,10,1,correct rejection,0
sub-023,active,pic-absent,0,0.0,2.0,0.0,11,1,correct rejection,0
sub-023,inactive,pic-present,1,0.0,2.0,1.0,11,1,hit,0
sub-023,inactive,pic-absent,0,0.0,2.0,2.0,11,1,correct rejection,0
sub-023,active,pic-absent,0,0.0,2.0,3.0,11,1,correct rejection,0
sub-023,inactive,pic-present,1,0.0,3.0,0.0,12,1,hit,0
sub-023,active,pic-absent,0,0.0,3.0,1.0,12,1,correct rejection,0
sub-023,active,pic-absent,0,0.0,3.0,2.0,12,1,correct rejection,0
sub-023,inactive,pic-present,1,0.0,3.0,3.0,12,1,hit,0
sub-023,active,pic-absent,0,1.0,0.0,0.0,21,1,correct rejection,0
sub-023,inactive,pic-present,1,1.0,0.0,1.0,21,1,hit,0
sub-023,active,pic-absent,0,1.0,0.0,2.0,21,1,correct rejection,0
sub-023,inactive,pic-absent,0,1.0,0.0,3.0,21,1,correct rejection,0
sub-023,inactive,pic-present,1,1.0,1.0,0.0,22,1,hit,0
sub-023,active,pic-absent,0,1.0,1.0,1.0,22,1,correct rejection,0
sub-023,inactive,pic-present,1,1.0,1.0,2.0,22,1,hit,0
sub-023,active,pic-absent,0,1.0,1.0,3.0,22,1,correct rejection,0
sub-023,active,pic-present,1,1.0,2.0,0.0,23,1,hit,0
sub-023,inactive,pic-absent,0,1.0,2.0,1.0,23,1,correct rejection,0
sub-023,active,pic-present,1,1.0,2.0,2.0,23,1,hit,0
sub-023,inactive,pic-present,0,1.0,2.0,3.0,23,0,miss,0
sub-023,inactive,pic-absent,1,1.0,3.0,0.0,24,0,false alarm,0
sub-023,active,pic-present,1,1.0,3.0,1.0,24,1,hit,0
sub-023,inactive,pic-absent,1,1.0,3.0,2.0,24,0,false alarm,0
sub-023,active,pic-present,0,1.0,3.0,3.0,24,0,miss,0
sub-024,inactive,pic-present,1,0.0,0.0,0.0,9,1,hit,0
sub-024,active,pic-absent,0,0.0,0.0,1.0,9,1,correct rejection,0
sub-024,active,pic-absent,0,0.0,0.0,2.0,9,1,correct rejection,0
sub-024,inactive,pic-present,1,0.0,0.0,3.0,9,1,hit,0
sub-024,active,pic-absent,0,0.0,1.0,0.0,10,1,correct rejection,0
sub-024,inactive,pic-present,0,0.0,1.0,1.0,10,0,miss,0
sub-024,active,pic-present,1,0.0,1.0,2.0,10,1,hit,0
sub-024,active,pic-absent,0,0.0,1.0,3.0,10,1,correct rejection,0
sub-024,inactive,pic-absent,0,0.0,2.0,0.0,11,1,correct rejection,0
sub-024,active,pic-present,1,0.0,2.0,1.0,11,1,hit,0
sub-024,inactive,pic-absent,0,0.0,2.0,2.0,11,1,correct rejection,0
sub-024,inactive,pic-absent,0,0.0,2.0,3.0,11,1,correct rejection,0
sub-024,active,pic-present,1,0.0,3.0,0.0,12,1,hit,0
sub-024,inactive,pic-absent,0,0.0,3.0,1.0,12,1,correct rejection,0
sub-024,inactive,pic-present,1,0.0,3.0,2.0,12,1,hit,0
sub-024,active,pic-present,1,0.0,3.0,3.0,12,1,hit,0
sub-024,active,pic-absent,0,1.0,0.0,0.0,21,1,correct rejection,0
sub-024,inactive,pic-present,1,1.0,0.0,1.0,21,1,hit,0
sub-024,inactive,pic-present,1,1.0,0.0,2.0,21,1,hit,0
sub-024,active,pic-absent,0,1.0,0.0,3.0,21,1,correct rejection,0
sub-024,inactive,pic-present,1,1.0,1.0,0.0,22,1,hit,0
sub-024,inactive,pic-absent,0,1.0,1.0,1.0,22,1,correct rejection,0
sub-024,active,pic-present,1,1.0,1.0,2.0,22,1,hit,0
sub-024,inactive,pic-absent,0,1.0,1.0,3.0,22,1,correct rejection,0
sub-024,inactive,pic-absent,0,1.0,2.0,0.0,23,1,correct rejection,0
sub-024,active,pic-present,1,1.0,2.0,1.0,23,1,hit,0
sub-024,active,pic-absent,0,1.0,2.0,2.0,23,1,correct rejection,0
sub-024,inactive,pic-present,1,1.0,2.0,3.0,23,1,hit,0
sub-024,active,pic-present,1,1.0,3.0,0.0,24,1,hit,0
sub-024,active,pic-absent,0,1.0,3.0,1.0,24,1,correct rejection,0
sub-024,inactive,pic-absent,0,1.0,3.0,2.0,24,1,correct rejection,0
sub-024,active,pic-present,1,1.0,3.0,3.0,24,1,hit,0
sub-025,active,pic-present,1,0.0,0.0,0.0,9,1,hit,0
sub-025,inactive,pic-absent,0,0.0,0.0,1.0,9,1,correct rejection,0
sub-025,active,pic-absent,0,0.0,0.0,2.0,9,1,correct rejection,0
sub-025,inactive,pic-present,0,0.0,0.0,3.0,9,0,miss,0
sub-025,inactive,pic-absent,1,0.0,1.0,0.0,10,0,false alarm,0
sub-025,active,pic-present,1,0.0,1.0,1.0,10,1,hit,0
sub-025,inactive,pic-absent,0,0.0,1.0,2.0,10,1,correct rejection,0
sub-025,active,pic-present,1,0.0,1.0,3.0,10,1,hit,0
sub-025,active,pic-absent,0,0.0,2.0,0.0,11,1,correct rejection,0
sub-025,inactive,pic-present,1,0.0,2.0,1.0,11,1,hit,0
sub-025,active,pic-present,1,0.0,2.0,2.0,11,1,hit,0
sub-025,active,pic-absent,0,0.0,2.0,3.0,11,1,correct rejection,0
sub-025,inactive,pic-present,1,0.0,3.0,0.0,12,1,hit,0
sub-025,active,pic-absent,0,0.0,3.0,1.0,12,1,correct rejection,0
sub-025,inactive,pic-present,0,0.0,3.0,2.0,12,0,miss,0
sub-025,inactive,pic-absent,1,0.0,3.0,3.0,12,0,false alarm,0
sub-025,inactive,pic-present,1,1.0,0.0,0.0,21,1,hit,0
sub-025,inactive,pic-absent,1,1.0,0.0,1.0,21,0,false alarm,0
sub-025,active,pic-present,1,1.0,0.0,2.0,21,1,hit,0
sub-025,active,pic-present,1,1.0,0.0,3.0,21,1,hit,0
sub-025,inactive,pic-absent,0,1.0,1.0,0.0,22,1,correct rejection,0
sub-025,active,pic-present,1,1.0,1.0,1.0,22,1,hit,0
sub-025,inactive,pic-present,1,1.0,1.0,2.0,22,1,hit,0
sub-025,inactive,pic-absent,0,1.0,1.0,3.0,22,1,correct rejection,0
sub-025,active,pic-absent,0,1.0,2.0,0.0,23,1,correct rejection,0
sub-025,inactive,pic-present,1,1.0,2.0,1.0,23,1,hit,0
sub-025,active,pic-absent,1,1.0,2.0,2.0,23,0,false alarm,0
sub-025,inactive,pic-present,0,1.0,2.0,3.0,23,0,miss,0
sub-025,active,pic-present,1,1.0,3.0,0.0,24,1,hit,0
sub-025,active,pic-absent,0,1.0,3.0,1.0,24,1,correct rejection,0
sub-025,inactive,pic-absent,0,1.0,3.0,2.0,24,1,correct rejection,0
sub-025,active,pic-absent,0,1.0,3.0,3.0,24,1,correct rejection,0
sub-026,active,pic-absent,1,0.0,0.0,0.0,9,0,false alarm,0
sub-026,active,pic-absent,0,0.0,0.0,1.0,9,1,correct rejection,0
sub-026,inactive,pic-present,1,0.0,0.0,2.0,9,1,hit,0
sub-026,active,pic-absent,0,0.0,0.0,3.0,9,1,correct rejection,0
sub-026,active,pic-present,1,0.0,1.0,0.0,10,1,hit,0
sub-026,inactive,pic-present,0,0.0,1.0,1.0,10,0,miss,0
sub-026,inactive,pic-absent,0,0.0,1.0,2.0,10,1,correct rejection,0
sub-026,active,pic-present,0,0.0,1.0,3.0,10,0,miss,0
sub-026,inactive,pic-absent,1,0.0,2.0,0.0,11,0,false alarm,0
sub-026,inactive,pic-absent,0,0.0,2.0,1.0,11,1,correct rejection,0
sub-026,active,pic-present,1,0.0,2.0,2.0,11,1,hit,0
sub-026,inactive,pic-absent,0,0.0,2.0,3.0,11,1,correct rejection,0
sub-026,inactive,pic-present,0,0.0,3.0,0.0,12,0,miss,0
sub-026,active,pic-present,1,0.0,3.0,1.0,12,1,hit,0
sub-026,active,pic-absent,0,0.0,3.0,2.0,12,1,correct rejection,0
sub-026,inactive,pic-present,0,0.0,3.0,3.0,12,0,miss,0
sub-026,inactive,pic-present,1,1.0,0.0,0.0,21,1,hit,0
sub-026,active,pic-absent,0,1.0,0.0,1.0,21,1,correct rejection,0
sub-026,active,pic-absent,0,1.0,0.0,2.0,21,1,correct rejection,0
sub-026,inactive,pic-present,1,1.0,0.0,3.0,21,1,hit,0
sub-026,inactive,pic-absent,0,1.0,1.0,0.0,22,1,correct rejection,0
sub-026,active,pic-present,0,1.0,1.0,1.0,22,0,miss,0
sub-026,active,pic-present,0,1.0,1.0,2.0,22,0,miss,0
sub-026,inactive,pic-absent,0,1.0,1.0,3.0,22,1,correct rejection,0
sub-026,active,pic-absent,1,1.0,2.0,0.0,23,0,false alarm,0
sub-026,inactive,pic-present,0,1.0,2.0,1.0,23,0,miss,0
sub-026,inactive,pic-present,1,1.0,2.0,2.0,23,1,hit,0
sub-026,active,pic-absent,0,1.0,2.0,3.0,23,1,correct rejection,0
sub-026,active,pic-present,1,1.0,3.0,0.0,24,1,hit,0
sub-026,inactive,pic-absent,0,1.0,3.0,1.0,24,1,correct rejection,0
sub-026,inactive,pic-absent,0,1.0,3.0,2.0,24,1,correct rejection,0
sub-026,active,pic-present,1,1.0,3.0,3.0,24,1,hit,0
sub-027,active,pic-absent,0,0.0,0.0,0.0,9,1,correct rejection,0
sub-027,inactive,pic-present,1,0.0,0.0,1.0,9,1,hit,0
sub-027,active,pic-absent,1,0.0,0.0,2.0,9,0,false alarm,0
sub-027,inactive,pic-present,1,0.0,0.0,3.0,9,1,hit,0
sub-027,active,pic-present,1,0.0,1.0,0.0,10,1,hit,0
sub-027,inactive,pic-absent,0,0.0,1.0,1.0,10,1,correct rejection,0
sub-027,active,pic-present,1,0.0,1.0,2.0,10,1,hit,0
sub-027,inactive,pic-absent,0,0.0,1.0,3.0,10,1,correct rejection,0
sub-027,inactive,pic-absent,0,0.0,2.0,0.0,11,1,correct rejection,0
sub-027,active,pic-present,1,0.0,2.0,1.0,11,1,hit,0
sub-027,inactive,pic-present,1,0.0,2.0,2.0,11,1,hit,0
sub-027,active,pic-absent,0,0.0,2.0,3.0,11,1,correct rejection,0
sub-027,inactive,pic-present,1,0.0,3.0,0.0,12,1,hit,0
sub-027,active,pic-absent,0,0.0,3.0,1.0,12,1,correct rejection,0
sub-027,inactive,pic-absent,0,0.0,3.0,2.0,12,1,correct rejection,0
sub-027,active,pic-present,1,0.0,3.0,3.0,12,1,hit,0
sub-027,active,pic-absent,0,1.0,0.0,0.0,21,1,correct rejection,0
sub-027,inactive,pic-absent,0,1.0,0.0,1.0,21,1,correct rejection,0
sub-027,active,pic-present,1,1.0,0.0,2.0,21,1,hit,0
sub-027,active,pic-present,1,1.0,0.0,3.0,21,1,hit,0
sub-027,inactive,pic-absent,0,1.0,1.0,0.0,22,1,correct rejection,0
sub-027,inactive,pic-present,1,1.0,1.0,1.0,22,1,hit,0
sub-027,active,pic-absent,0,1.0,1.0,2.0,22,1,correct rejection,0
sub-027,active,pic-absent,0,1.0,1.0,3.0,22,1,correct rejection,0
sub-027,inactive,pic-present,1,1.0,2.0,0.0,23,1,hit,0
sub-027,active,pic-present,1,1.0,2.0,1.0,23,1,hit,0
sub-027,inactive,pic-absent,0,1.0,2.0,2.0,23,1,correct rejection,0
sub-027,inactive,pic-present,1,1.0,2.0,3.0,23,1,hit,0
sub-027,active,pic-present,1,1.0,3.0,0.0,24,1,hit,0
sub-027,active,pic-absent,0,1.0,3.0,1.0,24,1,correct rejection,0
sub-027,inactive,pic-present,1,1.0,3.0,2.0,24,1,hit,0
sub-027,inactive,pic-absent,0,1.0,3.0,3.0,24,1,correct rejection,0
sub-028,inactive,pic-absent,1,0.0,0.0,0.0,9,0,false alarm,0
sub-028,active,pic-absent,0,0.0,0.0,1.0,9,1,correct rejection,0
sub-028,inactive,pic-present,1,0.0,0.0,2.0,9,1,hit,0
sub-028,inactive,pic-present,1,0.0,0.0,3.0,9,1,hit,0
sub-028,active,pic-absent,0,0.0,1.0,0.0,10,1,correct rejection,0
sub-028,inactive,pic-present,1,0.0,1.0,1.0,10,1,hit,0
sub-028,inactive,pic-absent,0,0.0,1.0,2.0,10,1,correct rejection,0
sub-028,active,pic-absent,0,0.0,1.0,3.0,10,1,correct rejection,0
sub-028,active,pic-present,1,0.0,2.0,0.0,11,1,hit,0
sub-028,inactive,pic-absent,1,0.0,2.0,1.0,11,0,false alarm,0
sub-028,active,pic-present,1,0.0,2.0,2.0,11,1,hit,0
sub-028,inactive,pic-absent,0,0.0,2.0,3.0,11,1,correct rejection,0
sub-028,inactive,pic-present,0,0.0,3.0,0.0,12,0,miss,0
sub-028,active,pic-present,1,0.0,3.0,1.0,12,1,hit,0
sub-028,active,pic-absent,1,0.0,3.0,2.0,12,0,false alarm,0
sub-028,active,pic-present,1,0.0,3.0,3.0,12,1,hit,0
sub-028,inactive,pic-present,0,1.0,0.0,0.0,21,0,miss,0
sub-028,active,pic-absent,1,1.0,0.0,1.0,21,0,false alarm,0
sub-028,active,pic-absent,0,1.0,0.0,2.0,21,1,correct rejection,0
sub-028,inactive,pic-present,1,1.0,0.0,3.0,21,1,hit,0
sub-028,active,pic-absent,1,1.0,1.0,0.0,22,0,false alarm,0
sub-028,inactive,pic-absent,0,1.0,1.0,1.0,22,1,correct rejection,0
sub-028,inactive,pic-present,0,1.0,1.0,2.0,22,0,miss,0
sub-028,active,pic-present,1,1.0,1.0,3.0,22,1,hit,0
sub-028,inactive,pic-absent,0,1.0,2.0,0.0,23,1,correct rejection,0
sub-028,inactive,pic-present,1,1.0,2.0,1.0,23,1,hit,0
sub-028,active,pic-present,1,1.0,2.0,2.0,23,1,hit,0
sub-028,inactive,pic-absent,0,1.0,2.0,3.0,23,1,correct rejection,0
sub-028,active,pic-present,1,1.0,3.0,0.0,24,1,hit,0
sub-028,active,pic-present,1,1.0,3.0,1.0,24,1,hit,0
sub-028,inactive,pic-absent,1,1.0,3.0,2.0,24,0,false alarm,0
sub-028,active,pic-absent,0,1.0,3.0,3.0,24,1,correct rejection,0
sub-029,active,pic-present,1,0.0,0.0,0.0,9,1,hit,1
sub-029,inactive,pic-absent,0,0.0,0.0,1.0,9,1,correct rejection,1
sub-029,active,pic-absent,0,0.0,0.0,2.0,9,1,correct rejection,1
sub-029,active,pic-present,1,0.0,0.0,3.0,9,1,hit,1
sub-029,inactive,pic-absent,0,0.0,1.0,0.0,10,1,correct rejection,1
sub-029,active,pic-absent,0,0.0,1.0,1.0,10,1,correct rejection,1
sub-029,inactive,pic-present,1,0.0,1.0,2.0,10,1,hit,1
sub-029,inactive,pic-absent,0,0.0,1.0,3.0,10,1,correct rejection,1
sub-029,active,pic-absent,0,0.0,2.0,0.0,11,1,correct rejection,1
sub-029,inactive,pic-present,1,0.0,2.0,1.0,11,1,hit,1
sub-029,active,pic-present,1,0.0,2.0,2.0,11,1,hit,1
sub-029,active,pic-absent,0,0.0,2.0,3.0,11,1,correct rejection,1
sub-029,inactive,pic-present,1,0.0,3.0,0.0,12,1,hit,1
sub-029,active,pic-present,1,0.0,3.0,1.0,12,1,hit,1
sub-029,inactive,pic-absent,1,0.0,3.0,2.0,12,0,false alarm,1
sub-029,inactive,pic-present,1,0.0,3.0,3.0,12,1,hit,1
sub-029,active,pic-present,1,1.0,0.0,0.0,21,1,hit,1
sub-029,inactive,pic-absent,0,1.0,0.0,1.0,21,1,correct rejection,1
sub-029,inactive,pic-absent,0,1.0,0.0,2.0,21,1,correct rejection,1
sub-029,active,pic-present,1,1.0,0.0,3.0,21,1,hit,1
sub-029,inactive,pic-absent,0,1.0,1.0,0.0,22,1,correct rejection,1
sub-029,active,pic-present,1,1.0,1.0,1.0,22,1,hit,1
sub-029,active,pic-present,1,1.0,1.0,2.0,22,1,hit,1
sub-029,inactive,pic-absent,1,1.0,1.0,3.0,22,0,false alarm,1
sub-029,inactive,pic-present,1,1.0,2.0,0.0,23,1,hit,1
sub-029,active,pic-absent,0,1.0,2.0,1.0,23,1,correct rejection,1
sub-029,inactive,pic-present,1,1.0,2.0,2.0,23,1,hit,1
sub-029,active,pic-absent,0,1.0,2.0,3.0,23,1,correct rejection,1
sub-029,active,pic-absent,0,1.0,3.0,0.0,24,1,correct rejection,1
sub-029,inactive,pic-present,1,1.0,3.0,1.0,24,1,hit,1
sub-029,active,pic-absent,0,1.0,3.0,2.0,24,1,correct rejection,1
sub-029,inactive,pic-present,1,1.0,3.0,3.0,24,1,hit,1
sub-030,inactive,pic-absent,0,0.0,0.0,0.0,9,1,correct rejection,0
sub-030,inactive,pic-present,0,0.0,0.0,1.0,9,0,miss,0
sub-030,active,pic-absent,0,0.0,0.0,2.0,9,1,correct rejection,0
sub-030,active,pic-absent,0,0.0,0.0,3.0,9,1,correct rejection,0
sub-030,inactive,pic-present,1,0.0,1.0,0.0,10,1,hit,0
sub-030,active,pic-absent,0,0.0,1.0,1.0,10,1,correct rejection,0
sub-030,inactive,pic-present,1,0.0,1.0,2.0,10,1,hit,0
sub-030,active,pic-present,1,0.0,1.0,3.0,10,1,hit,0
sub-030,active,pic-absent,0,0.0,2.0,0.0,11,1,correct rejection,0
sub-030,inactive,pic-absent,0,0.0,2.0,1.0,11,1,correct rejection,0
sub-030,active,pic-present,1,0.0,2.0,2.0,11,1,hit,0
sub-030,inactive,pic-absent,0,0.0,2.0,3.0,11,1,correct rejection,0
sub-030,active,pic-present,1,0.0,3.0,0.0,12,1,hit,0
sub-030,active,pic-present,1,0.0,3.0,1.0,12,1,hit,0
sub-030,inactive,pic-absent,0,0.0,3.0,2.0,12,1,correct rejection,0
sub-030,inactive,pic-present,1,0.0,3.0,3.0,12,1,hit,0
sub-030,active,pic-present,1,1.0,0.0,0.0,21,1,hit,0
sub-030,inactive,pic-absent,0,1.0,0.0,1.0,21,1,correct rejection,0
sub-030,active,pic-absent,0,1.0,0.0,2.0,21,1,correct rejection,0
sub-030,active,pic-present,1,1.0,0.0,3.0,21,1,hit,0
sub-030,inactive,pic-absent,1,1.0,1.0,0.0,22,0,false alarm,0
sub-030,active,pic-present,0,1.0,1.0,1.0,22,0,miss,0
sub-030,active,pic-present,1,1.0,1.0,2.0,22,1,hit,0
sub-030,inactive,pic-absent,0,1.0,1.0,3.0,22,1,correct rejection,0
sub-030,active,pic-absent,0,1.0,2.0,0.0,23,1,correct rejection,0
sub-030,inactive,pic-present,1,1.0,2.0,1.0,23,1,hit,0
sub-030,inactive,pic-absent,0,1.0,2.0,2.0,23,1,correct rejection,0
sub-030,active,pic-absent,0,1.0,2.0,3.0,23,1,correct rejection,0
sub-030,inactive,pic-present,1,1.0,3.0,0.0,24,1,hit,0
sub-030,active,pic-absent,0,1.0,3.0,1.0,24,1,correct rejection,0
sub-030,inactive,pic-present,1,1.0,3.0,2.0,24,1,hit,0
sub-030,inactive,pic-present,1,1.0,3.0,3.0,24,1,hit,0
sub-031,inactive,pic-present,1,0.0,0.0,0.0,9,1,hit,0
sub-031,active,pic-absent,0,0.0,0.0,1.0,9,1,correct rejection,0
sub-031,inactive,pic-present,1,0.0,0.0,2.0,9,1,hit,0
sub-031,active,pic-present,1,0.0,0.0,3.0,9,1,hit,0
sub-031,active,pic-absent,1,0.0,1.0,0.0,10,0,false alarm,0
sub-031,inactive,pic-absent,0,0.0,1.0,1.0,10,1,correct rejection,0
sub-031,active,pic-present,1,0.0,1.0,2.0,10,1,hit,0
sub-031,inactive,pic-absent,0,0.0,1.0,3.0,10,1,correct rejection,0
sub-031,active,pic-present,1,0.0,2.0,0.0,11,1,hit,0
sub-031,inactive,pic-present,1,0.0,2.0,1.0,11,1,hit,0
sub-031,active,pic-absent,1,0.0,2.0,2.0,11,0,false alarm,0
sub-031,inactive,pic-present,1,0.0,2.0,3.0,11,1,hit,0
sub-031,inactive,pic-absent,0,0.0,3.0,0.0,12,1,correct rejection,0
sub-031,active,pic-present,1,0.0,3.0,1.0,12,1,hit,0
sub-031,inactive,pic-absent,0,0.0,3.0,2.0,12,1,correct rejection,0
sub-031,active,pic-absent,0,0.0,3.0,3.0,12,1,correct rejection,0
sub-031,active,pic-absent,1,1.0,0.0,0.0,21,0,false alarm,0
sub-031,active,pic-present,1,1.0,0.0,1.0,21,1,hit,0
sub-031,inactive,pic-present,1,1.0,0.0,2.0,21,1,hit,0
sub-031,active,pic-absent,0,1.0,0.0,3.0,21,1,correct rejection,0
sub-031,inactive,pic-absent,0,1.0,1.0,0.0,22,1,correct rejection,0
sub-031,inactive,pic-present,1,1.0,1.0,1.0,22,1,hit,0
sub-031,active,pic-present,1,1.0,1.0,2.0,22,1,hit,0
sub-031,inactive,pic-absent,0,1.0,1.0,3.0,22,1,correct rejection,0
sub-031,active,pic-present,1,1.0,2.0,0.0,23,1,hit,0
sub-031,inactive,pic-absent,0,1.0,2.0,1.0,23,1,correct rejection,0
sub-031,active,pic-absent,1,1.0,2.0,2.0,23,0,false alarm,0
sub-031,active,pic-present,1,1.0,2.0,3.0,23,1,hit,0
sub-031,inactive,pic-present,1,1.0,3.0,0.0,24,1,hit,0
sub-031,active,pic-absent,1,1.0,3.0,1.0,24,0,false alarm,0
sub-031,inactive,pic-absent,1,1.0,3.0,2.0,24,0,false alarm,0
sub-031,inactive,pic-present,1,1.0,3.0,3.0,24,1,hit,0
sub-032,active,pic-absent,0,0.0,0.0,0.0,9,1,correct rejection,0
sub-032,inactive,pic-present,0,0.0,0.0,1.0,9,0,miss,0
sub-032,active,pic-present,1,0.0,0.0,2.0,9,1,hit,0
sub-032,inactive,pic-absent,0,0.0,0.0,3.0,9,1,correct rejection,0
sub-032,inactive,pic-present,1,0.0,1.0,0.0,10,1,hit,0
sub-032,active,pic-present,1,0.0,1.0,1.0,10,1,hit,0
sub-032,inactive,pic-absent,0,0.0,1.0,2.0,10,1,correct rejection,0
sub-032,active,pic-absent,0,0.0,1.0,3.0,10,1,correct rejection,0
sub-032,active,pic-present,1,0.0,2.0,0.0,11,1,hit,0
sub-032,inactive,pic-absent,1,0.0,2.0,1.0,11,0,false alarm,0
sub-032,active,pic-absent,1,0.0,2.0,2.0,11,0,false alarm,0
sub-032,inactive,pic-present,1,0.0,2.0,3.0,11,1,hit,0
sub-032,inactive,pic-absent,1,0.0,3.0,0.0,12,0,false alarm,0
sub-032,active,pic-absent,1,0.0,3.0,1.0,12,0,false alarm,0
sub-032,inactive,pic-present,0,0.0,3.0,2.0,12,0,miss,0
sub-032,active,pic-present,0,0.0,3.0,3.0,12,0,miss,0
sub-032,active,pic-present,1,1.0,0.0,0.0,21,1,hit,0
sub-032,inactive,pic-absent,0,1.0,0.0,1.0,21,1,correct rejection,0
sub-032,active,pic-present,1,1.0,0.0,2.0,21,1,hit,0
sub-032,active,pic-present,0,1.0,0.0,3.0,21,0,miss,0
sub-032,inactive,pic-absent,1,1.0,1.0,0.0,22,0,false alarm,0
sub-032,active,pic-present,1,1.0,1.0,1.0,22,1,hit,0
sub-032,inactive,pic-present,1,1.0,1.0,2.0,22,1,hit,0
sub-032,active,pic-absent,0,1.0,1.0,3.0,22,1,correct rejection,0
sub-032,inactive,pic-present,1,1.0,2.0,0.0,23,1,hit,0
sub-032,active,pic-absent,0,1.0,2.0,1.0,23,1,correct rejection,0
sub-032,active,pic-absent,1,1.0,2.0,2.0,23,0,false alarm,0
sub-032,inactive,pic-present,1,1.0,2.0,3.0,23,1,hit,0
sub-032,active,pic-absent,1,1.0,3.0,0.0,24,0,false alarm,0
sub-032,inactive,pic-present,1,1.0,3.0,1.0,24,1,hit,0
sub-032,inactive,pic-absent,0,1.0,3.0,2.0,24,1,correct rejection,0
sub-032,inactive,pic-absent,0,1.0,3.0,3.0,24,1,correct rejection,0
sub-033,active,pic-absent,0,0.0,0.0,0.0,9,1,correct rejection,1
sub-033,active,pic-absent,0,0.0,0.0,1.0,9,1,correct rejection,1
sub-033,inactive,pic-present,0,0.0,0.0,2.0,9,0,miss,1
sub-033,active,pic-absent,0,0.0,0.0,3.0,9,1,correct rejection,1
sub-033,active,pic-present,0,0.0,1.0,0.0,10,0,miss,1
sub-033,inactive,pic-present,0,0.0,1.0,1.0,10,0,miss,1
sub-033,inactive,pic-absent,1,0.0,1.0,2.0,10,0,false alarm,1
sub-033,active,pic-present,0,0.0,1.0,3.0,10,0,miss,1
sub-033,inactive,pic-present,0,0.0,2.0,0.0,11,0,miss,1
sub-033,inactive,pic-absent,0,0.0,2.0,1.0,11,1,correct rejection,1
sub-033,active,pic-absent,0,0.0,2.0,2.0,11,1,correct rejection,1
sub-033,inactive,pic-present,0,0.0,2.0,3.0,11,0,miss,1
sub-033,inactive,pic-absent,1,0.0,3.0,0.0,12,0,false alarm,1
sub-033,active,pic-present,0,0.0,3.0,1.0,12,0,miss,1
sub-033,active,pic-present,0,0.0,3.0,2.0,12,0,miss,1
sub-033,inactive,pic-absent,1,0.0,3.0,3.0,12,0,false alarm,1
sub-033,inactive,pic-present,0,1.0,0.0,0.0,21,0,miss,1
sub-033,inactive,pic-absent,1,1.0,0.0,1.0,21,0,false alarm,1
sub-033,active,pic-absent,1,1.0,0.0,2.0,21,0,false alarm,1
sub-033,active,pic-present,0,1.0,0.0,3.0,21,0,miss,1
sub-033,inactive,pic-absent,1,1.0,1.0,0.0,22,0,false alarm,1
sub-033,active,pic-present,0,1.0,1.0,1.0,22,0,miss,1
sub-033,active,pic-present,1,1.0,1.0,2.0,22,1,hit,1
sub-033,inactive,pic-absent,1,1.0,1.0,3.0,22,0,false alarm,1
sub-033,active,pic-present,0,1.0,2.0,0.0,23,0,miss,1
sub-033,active,pic-absent,1,1.0,2.0,1.0,23,0,false alarm,1
sub-033,inactive,pic-present,0,1.0,2.0,2.0,23,0,miss,1
sub-033,inactive,pic-present,0,1.0,2.0,3.0,23,0,miss,1
sub-033,active,pic-absent,1,1.0,3.0,0.0,24,0,false alarm,1
sub-033,inactive,pic-present,0,1.0,3.0,1.0,24,0,miss,1
sub-033,inactive,pic-absent,1,1.0,3.0,2.0,24,0,false alarm,1
sub-033,active,pic-absent,1,1.0,3.0,3.0,24,0,false alarm,1
sub-034,active,pic-present,1,0.0,0.0,0.0,9,1,hit,0
sub-034,inactive,pic-absent,0,0.0,0.0,1.0,9,1,correct rejection,0
sub-034,active,pic-present,0,0.0,0.0,2.0,9,0,miss,0
sub-034,inactive,pic-absent,1,0.0,0.0,3.0,9,0,false alarm,0
sub-034,inactive,pic-present,1,0.0,1.0,0.0,10,1,hit,0
sub-034,active,pic-absent,1,0.0,1.0,1.0,10,0,false alarm,0
sub-034,inactive,pic-absent,0,0.0,1.0,2.0,10,1,correct rejection,0
sub-034,active,pic-present,0,0.0,1.0,3.0,10,0,miss,0
sub-034,inactive,pic-absent,1,0.0,2.0,0.0,11,0,false alarm,0
sub-034,active,pic-present,0,0.0,2.0,1.0,11,0,miss,0
sub-034,inactive,pic-present,0,0.0,2.0,2.0,11,0,miss,0
sub-034,active,pic-absent,0,0.0,2.0,3.0,11,1,correct rejection,0
sub-034,active,pic-absent,1,0.0,3.0,0.0,12,0,false alarm,0
sub-034,inactive,pic-present,0,0.0,3.0,1.0,12,0,miss,0
sub-034,active,pic-absent,0,0.0,3.0,2.0,12,1,correct rejection,0
sub-034,inactive,pic-present,0,0.0,3.0,3.0,12,0,miss,0
sub-034,inactive,pic-absent,0,1.0,0.0,0.0,21,1,correct rejection,0
sub-034,active,pic-present,0,1.0,0.0,1.0,21,0,miss,0
sub-034,inactive,pic-absent,0,1.0,0.0,2.0,21,1,correct rejection,0
sub-034,inactive,pic-absent,1,1.0,0.0,3.0,21,0,false alarm,0
sub-034,active,pic-present,1,1.0,1.0,0.0,22,1,hit,0
sub-034,active,pic-absent,1,1.0,1.0,1.0,22,0,false alarm,0
sub-034,inactive,pic-present,0,1.0,1.0,2.0,22,0,miss,0
sub-034,active,pic-absent,1,1.0,1.0,3.0,22,0,false alarm,0
sub-034,active,pic-absent,1,1.0,2.0,0.0,23,0,false alarm,0
sub-034,inactive,pic-present,1,1.0,2.0,1.0,23,1,hit,0
sub-034,active,pic-absent,1,1.0,2.0,2.0,23,0,false alarm,0
sub-034,active,pic-present,1,1.0,2.0,3.0,23,1,hit,0
sub-034,inactive,pic-present,0,1.0,3.0,0.0,24,0,miss,0
sub-034,inactive,pic-absent,1,1.0,3.0,1.0,24,0,false alarm,0
sub-034,active,pic-present,1,1.0,3.0,2.0,24,1,hit,0
sub-034,inactive,pic-present,0,1.0,3.0,3.0,24,0,miss,0
sub-035,inactive,pic-present,1,0.0,0.0,0.0,9,1,hit,0
sub-035,inactive,pic-absent,0,0.0,0.0,1.0,9,1,correct rejection,0
sub-035,active,pic-present,1,0.0,0.0,2.0,9,1,hit,0
sub-035,active,pic-absent,0,0.0,0.0,3.0,9,1,correct rejection,0
sub-035,inactive,pic-absent,0,0.0,1.0,0.0,10,1,correct rejection,0
sub-035,active,pic-present,1,0.0,1.0,1.0,10,1,hit,0
sub-035,inactive,pic-absent,0,0.0,1.0,2.0,10,1,correct rejection,0
sub-035,inactive,pic-present,0,0.0,1.0,3.0,10,0,miss,0
sub-035,active,pic-absent,0,0.0,2.0,0.0,11,1,correct rejection,0
sub-035,inactive,pic-present,1,0.0,2.0,1.0,11,1,hit,0
sub-035,active,pic-absent,0,0.0,2.0,2.0,11,1,correct rejection,0
sub-035,inactive,pic-absent,0,0.0,2.0,3.0,11,1,correct rejection,0
sub-035,active,pic-present,1,0.0,3.0,0.0,12,1,hit,0
sub-035,active,pic-absent,0,0.0,3.0,1.0,12,1,correct rejection,0
sub-035,inactive,pic-present,1,0.0,3.0,2.0,12,1,hit,0
sub-035,active,pic-present,1,0.0,3.0,3.0,12,1,hit,0
sub-035,inactive,pic-absent,0,1.0,0.0,0.0,21,1,correct rejection,0
sub-035,active,pic-absent,0,1.0,0.0,1.0,21,1,correct rejection,0
sub-035,inactive,pic-present,1,1.0,0.0,2.0,21,1,hit,0
sub-035,active,pic-absent,0,1.0,0.0,3.0,21,1,correct rejection,0
sub-035,inactive,pic-present,1,1.0,1.0,0.0,22,1,hit,0
sub-035,inactive,pic-present,1,1.0,1.0,1.0,22,1,hit,0
sub-035,active,pic-absent,0,1.0,1.0,2.0,22,1,correct rejection,0
sub-035,inactive,pic-absent,0,1.0,1.0,3.0,22,1,correct rejection,0
sub-035,active,pic-present,1,1.0,2.0,0.0,23,1,hit,0
sub-035,inactive,pic-absent,0,1.0,2.0,1.0,23,1,correct rejection,0
sub-035,active,pic-present,1,1.0,2.0,2.0,23,1,hit,0
sub-035,inactive,pic-present,1,1.0,2.0,3.0,23,1,hit,0
sub-035,active,pic-absent,0,1.0,3.0,0.0,24,1,correct rejection,0
sub-035,active,pic-present,1,1.0,3.0,1.0,24,1,hit,0
sub-035,inactive,pic-absent,0,1.0,3.0,2.0,24,1,correct rejection,0
sub-035,active,pic-present,1,1.0,3.0,3.0,24,1,hit,0
sub-036,inactive,pic-absent,0,0.0,0.0,0.0,9,1,correct rejection,0
sub-036,active,pic-present,1,0.0,0.0,1.0,9,1,hit,0
sub-036,inactive,pic-present,1,0.0,0.0,2.0,9,1,hit,0
sub-036,active,pic-absent,0,0.0,0.0,3.0,9,1,correct rejection,0
sub-036,active,pic-absent,0,0.0,1.0,0.0,10,1,correct rejection,0
sub-036,inactive,pic-present,1,0.0,1.0,1.0,10,1,hit,0
sub-036,inactive,pic-absent,0,0.0,1.0,2.0,10,1,correct rejection,0
sub-036,active,pic-present,1,0.0,1.0,3.0,10,1,hit,0
sub-036,inactive,pic-present,0,0.0,2.0,0.0,11,0,miss,0
sub-036,active,pic-absent,0,0.0,2.0,1.0,11,1,correct rejection,0
sub-036,active,pic-present,1,0.0,2.0,2.0,11,1,hit,0
sub-036,inactive,pic-absent,1,0.0,2.0,3.0,11,0,false alarm,0
sub-036,active,pic-present,1,0.0,3.0,0.0,12,1,hit,0
sub-036,inactive,pic-absent,0,0.0,3.0,1.0,12,1,correct rejection,0
sub-036,active,pic-absent,0,0.0,3.0,2.0,12,1,correct rejection,0
sub-036,inactive,pic-present,1,0.0,3.0,3.0,12,1,hit,0
sub-036,inactive,pic-present,1,1.0,0.0,0.0,21,1,hit,0
sub-036,active,pic-absent,0,1.0,0.0,1.0,21,1,correct rejection,0
sub-036,inactive,pic-present,1,1.0,0.0,2.0,21,1,hit,0
sub-036,inactive,pic-absent,0,1.0,0.0,3.0,21,1,correct rejection,0
sub-036,active,pic-present,1,1.0,1.0,0.0,22,1,hit,0
sub-036,inactive,pic-present,1,1.0,1.0,1.0,22,1,hit,0
sub-036,inactive,pic-absent,0,1.0,1.0,2.0,22,1,correct rejection,0
sub-036,active,pic-present,0,1.0,1.0,3.0,22,0,miss,0
sub-036,inactive,pic-absent,0,1.0,2.0,0.0,23,1,correct rejection,0
sub-036,active,pic-present,1,1.0,2.0,1.0,23,1,hit,0
sub-036,active,pic-absent,0,1.0,2.0,2.0,23,1,correct rejection,0
sub-036,inactive,pic-present,1,1.0,2.0,3.0,23,1,hit,0
sub-036,active,pic-absent,0,1.0,3.0,0.0,24,1,correct rejection,0
sub-036,inactive,pic-absent,0,1.0,3.0,1.0,24,1,correct rejection,0
sub-036,active,pic-present,1,1.0,3.0,2.0,24,1,hit,0
sub-036,active,pic-absent,0,1.0,3.0,3.0,24,1,correct rejection,0
sub-037,inactive,pic-present,1,0.0,0.0,0.0,9,1,hit,0
sub-037,inactive,pic-present,1,0.0,0.0,1.0,9,1,hit,0
sub-037,active,pic-absent,0,0.0,0.0,2.0,9,1,correct rejection,0
sub-037,inactive,pic-present,1,0.0,0.0,3.0,9,1,hit,0
sub-037,active,pic-present,0,0.0,1.0,0.0,10,0,miss,0
sub-037,active,pic-absent,0,0.0,1.0,1.0,10,1,correct rejection,0
sub-037,inactive,pic-present,1,0.0,1.0,2.0,10,1,hit,0
sub-037,active,pic-present,1,0.0,1.0,3.0,10,1,hit,0
sub-037,active,pic-absent,1,0.0,2.0,0.0,11,0,false alarm,0
sub-037,inactive,pic-absent,1,0.0,2.0,1.0,11,0,false alarm,0
sub-037,active,pic-present,1,0.0,2.0,2.0,11,1,hit,0
sub-037,inactive,pic-absent,0,0.0,2.0,3.0,11,1,correct rejection,0
sub-037,inactive,pic-absent,0,0.0,3.0,0.0,12,1,correct rejection,0
sub-037,active,pic-present,0,0.0,3.0,1.0,12,0,miss,0
sub-037,inactive,pic-absent,1,0.0,3.0,2.0,12,0,false alarm,0
sub-037,active,pic-absent,0,0.0,3.0,3.0,12,1,correct rejection,0
sub-037,inactive,pic-absent,1,1.0,0.0,0.0,21,0,false alarm,0
sub-037,active,pic-present,1,1.0,0.0,1.0,21,1,hit,0
sub-037,inactive,pic-present,1,1.0,0.0,2.0,21,1,hit,0
sub-037,active,pic-absent,0,1.0,0.0,3.0,21,1,correct rejection,0
sub-037,active,pic-absent,0,1.0,1.0,0.0,22,1,correct rejection,0
sub-037,inactive,pic-present,1,1.0,1.0,1.0,22,1,hit,0
sub-037,inactive,pic-absent,1,1.0,1.0,2.0,22,0,false alarm,0
sub-037,active,pic-present,0,1.0,1.0,3.0,22,0,miss,0
sub-037,inactive,pic-present,1,1.0,2.0,0.0,23,1,hit,0
sub-037,active,pic-absent,0,1.0,2.0,1.0,23,1,correct rejection,0
sub-037,active,pic-absent,0,1.0,2.0,2.0,23,1,correct rejection,0
sub-037,inactive,pic-present,0,1.0,2.0,3.0,23,0,miss,0
sub-037,active,pic-present,1,1.0,3.0,0.0,24,1,hit,0
sub-037,inactive,pic-absent,0,1.0,3.0,1.0,24,1,correct rejection,0
sub-037,active,pic-present,0,1.0,3.0,2.0,24,0,miss,0
sub-037,inactive,pic-absent,0,1.0,3.0,3.0,24,1,correct rejection,0
sub-038,active,pic-absent,0,0.0,0.0,0.0,9,1,correct rejection,0
sub-038,inactive,pic-absent,1,0.0,0.0,1.0,9,0,false alarm,0
sub-038,active,pic-present,0,0.0,0.0,2.0,9,0,miss,0
sub-038,active,pic-present,1,0.0,0.0,3.0,9,1,hit,0
sub-038,inactive,pic-absent,0,0.0,1.0,0.0,10,1,correct rejection,0
sub-038,active,pic-absent,0,0.0,1.0,1.0,10,1,correct rejection,0
sub-038,inactive,pic-present,1,0.0,1.0,2.0,10,1,hit,0
sub-038,active,pic-absent,0,0.0,1.0,3.0,10,1,correct rejection,0
sub-038,inactive,pic-present,1,0.0,2.0,0.0,11,1,hit,0
sub-038,active,pic-present,1,0.0,2.0,1.0,11,1,hit,0
sub-038,active,pic-absent,0,0.0,2.0,2.0,11,1,correct rejection,0
sub-038,inactive,pic-absent,0,0.0,2.0,3.0,11,1,correct rejection,0
sub-038,active,pic-present,1,0.0,3.0,0.0,12,1,hit,0
sub-038,inactive,pic-present,0,0.0,3.0,1.0,12,0,miss,0
sub-038,inactive,pic-absent,0,0.0,3.0,2.0,12,1,correct rejection,0
sub-038,inactive,pic-present,1,0.0,3.0,3.0,12,1,hit,0
sub-038,active,pic-present,1,1.0,0.0,0.0,21,1,hit,0
sub-038,inactive,pic-absent,1,1.0,0.0,1.0,21,0,false alarm,0
sub-038,inactive,pic-absent,0,1.0,0.0,2.0,21,1,correct rejection,0
sub-038,active,pic-present,0,1.0,0.0,3.0,21,0,miss,0
sub-038,inactive,pic-absent,0,1.0,1.0,0.0,22,1,correct rejection,0
sub-038,active,pic-absent,0,1.0,1.0,1.0,22,1,correct rejection,0
sub-038,inactive,pic-present,1,1.0,1.0,2.0,22,1,hit,0
sub-038,inactive,pic-absent,0,1.0,1.0,3.0,22,1,correct rejection,0
sub-038,active,pic-absent,1,1.0,2.0,0.0,23,0,false alarm,0
sub-038,inactive,pic-present,1,1.0,2.0,1.0,23,1,hit,0
sub-038,active,pic-present,0,1.0,2.0,2.0,23,0,miss,0
sub-038,active,pic-absent,0,1.0,2.0,3.0,23,1,correct rejection,0
sub-038,inactive,pic-present,0,1.0,3.0,0.0,24,0,miss,0
sub-038,active,pic-present,1,1.0,3.0,1.0,24,1,hit,0
sub-038,active,pic-absent,0,1.0,3.0,2.0,24,1,correct rejection,0
sub-038,inactive,pic-present,0,1.0,3.0,3.0,24,0,miss,0
sub-039,inactive,pic-absent,0,0.0,0.0,0.0,9,1,correct rejection,1
sub-039,active,pic-absent,0,0.0,0.0,1.0,9,1,correct rejection,1
sub-039,active,pic-present,0,0.0,0.0,2.0,9,0,miss,1
sub-039,inactive,pic-present,1,0.0,0.0,3.0,9,1,hit,1
sub-039,active,pic-absent,0,0.0,1.0,0.0,10,1,correct rejection,1
sub-039,inactive,pic-present,0,0.0,1.0,1.0,10,0,miss,1
sub-039,active,pic-absent,0,0.0,1.0,2.0,10,1,correct rejection,1
sub-039,active,pic-absent,0,0.0,1.0,3.0,10,1,correct rejection,1
sub-039,inactive,pic-present,1,0.0,2.0,0.0,11,1,hit,1
sub-039,active,pic-present,1,0.0,2.0,1.0,11,1,hit,1
sub-039,inactive,pic-absent,0,0.0,2.0,2.0,11,1,correct rejection,1
sub-039,active,pic-present,1,0.0,2.0,3.0,11,1,hit,1
sub-039,inactive,pic-absent,1,0.0,3.0,1.0,12,0,false alarm,1
sub-039,inactive,pic-present,1,0.0,3.0,2.0,12,1,hit,1
sub-039,inactive,pic-absent,0,0.0,3.0,3.0,12,1,correct rejection,1
sub-039,inactive,pic-present,1,1.0,0.0,0.0,21,1,hit,1
sub-039,inactive,pic-absent,0,1.0,0.0,1.0,21,1,correct rejection,1
sub-039,active,pic-absent,0,1.0,0.0,2.0,21,1,correct rejection,1
sub-039,inactive,pic-present,1,1.0,0.0,3.0,21,1,hit,1
sub-039,inactive,pic-absent,0,1.0,1.0,0.0,22,1,correct rejection,1
sub-039,active,pic-absent,0,1.0,1.0,1.0,22,1,correct rejection,1
sub-039,inactive,pic-present,1,1.0,1.0,2.0,22,1,hit,1
sub-039,active,pic-present,1,1.0,1.0,3.0,22,1,hit,1
sub-039,active,pic-absent,0,1.0,2.0,0.0,23,1,correct rejection,1
sub-039,inactive,pic-present,1,1.0,2.0,1.0,23,1,hit,1
sub-039,active,pic-present,0,1.0,2.0,2.0,23,0,miss,1
sub-039,inactive,pic-absent,0,1.0,2.0,3.0,23,1,correct rejection,1
sub-039,active,pic-present,1,1.0,3.0,0.0,24,1,hit,1
sub-039,active,pic-present,1,1.0,3.0,1.0,24,1,hit,1
sub-039,inactive,pic-absent,1,1.0,3.0,2.0,24,0,false alarm,1
sub-039,active,pic-absent,0,1.0,3.0,3.0,24,1,correct rejection,1
sub-040,active,pic-present,1,0.0,0.0,0.0,9,1,hit,0
sub-040,inactive,pic-absent,0,0.0,0.0,1.0,9,1,correct rejection,0
sub-040,active,pic-present,1,0.0,0.0,2.0,9,1,hit,0
sub-040,active,pic-absent,0,0.0,0.0,3.0,9,1,correct rejection,0
sub-040,inactive,pic-absent,1,0.0,1.0,0.0,10,0,false alarm,0
sub-040,active,pic-present,1,0.0,1.0,1.0,10,1,hit,0
sub-040,active,pic-absent,0,0.0,1.0,2.0,10,1,correct rejection,0
sub-040,inactive,pic-present,1,0.0,1.0,3.0,10,1,hit,0
sub-040,inactive,pic-present,0,0.0,2.0,0.0,11,0,miss,0
sub-040,active,pic-absent,1,0.0,2.0,1.0,11,0,false alarm,0
sub-040,inactive,pic-present,1,0.0,2.0,2.0,11,1,hit,0
sub-040,inactive,pic-absent,0,0.0,2.0,3.0,11,1,correct rejection,0
sub-040,active,pic-absent,1,0.0,3.0,0.0,12,0,false alarm,0
sub-040,inactive,pic-present,1,0.0,3.0,1.0,12,1,hit,0
sub-040,inactive,pic-absent,0,0.0,3.0,2.0,12,1,correct rejection,0
sub-040,active,pic-present,0,0.0,3.0,3.0,12,0,miss,0
sub-040,active,pic-absent,0,1.0,0.0,0.0,21,1,correct rejection,0
sub-040,inactive,pic-present,1,1.0,0.0,1.0,21,1,hit,0
sub-040,active,pic-present,1,1.0,0.0,2.0,21,1,hit,0
sub-040,active,pic-absent,0,1.0,0.0,3.0,21,1,correct rejection,0
sub-040,inactive,pic-present,1,1.0,1.0,0.0,22,1,hit,0
sub-040,active,pic-absent,0,1.0,1.0,1.0,22,1,correct rejection,0
sub-040,inactive,pic-present,1,1.0,1.0,2.0,22,1,hit,0
sub-040,inactive,pic-absent,0,1.0,1.0,3.0,22,1,correct rejection,0
sub-040,active,pic-present,1,1.0,2.0,0.0,23,1,hit,0
sub-040,inactive,pic-absent,0,1.0,2.0,1.0,23,1,correct rejection,0
sub-040,inactive,pic-absent,1,1.0,2.0,2.0,23,0,false alarm,0
sub-040,active,pic-present,1,1.0,2.0,3.0,23,1,hit,0
sub-040,inactive,pic-absent,0,1.0,3.0,0.0,24,1,correct rejection,0
sub-040,active,pic-present,1,1.0,3.0,1.0,24,1,hit,0
sub-040,active,pic-absent,0,1.0,3.0,2.0,24,1,correct rejection,0
sub-040,inactive,pic-present,1,1.0,3.0,3.0,24,1,hit,0
sub-041,inactive,pic-absent,0,0.0,0.0,0.0,9,1,correct rejection,0
sub-041,inactive,pic-present,1,0.0,0.0,1.0,9,1,hit,0
sub-041,active,pic-absent,0,0.0,0.0,2.0,9,1,correct rejection,0
sub-041,active,pic-present,1,0.0,0.0,3.0,9,1,hit,0
sub-041,inactive,pic-present,1,0.0,1.0,0.0,10,1,hit,0
sub-041,active,pic-absent,0,0.0,1.0,1.0,10,1,correct rejection,0
sub-041,inactive,pic-present,1,0.0,1.0,2.0,10,1,hit,0
sub-041,active,pic-absent,0,0.0,1.0,3.0,10,1,correct rejection,0
sub-041,active,pic-present,1,0.0,2.0,0.0,11,1,hit,0
sub-041,inactive,pic-absent,0,0.0,2.0,1.0,11,1,correct rejection,0
sub-041,active,pic-present,1,0.0,2.0,2.0,11,1,hit,0
sub-041,inactive,pic-present,1,0.0,2.0,3.0,11,1,hit,0
sub-041,active,pic-absent,0,0.0,3.0,0.0,12,1,correct rejection,0
sub-041,active,pic-present,1,0.0,3.0,1.0,12,1,hit,0
sub-041,inactive,pic-absent,0,0.0,3.0,2.0,12,1,correct rejection,0
sub-041,inactive,pic-absent,0,0.0,3.0,3.0,12,1,correct rejection,0
sub-041,active,pic-present,1,1.0,0.0,0.0,21,1,hit,0
sub-041,active,pic-present,1,1.0,0.0,1.0,21,1,hit,0
sub-041,inactive,pic-absent,0,1.0,0.0,2.0,21,1,correct rejection,0
sub-041,active,pic-present,1,1.0,0.0,3.0,21,1,hit,0
sub-041,inactive,pic-absent,0,1.0,1.0,0.0,22,1,correct rejection,0
sub-041,active,pic-absent,0,1.0,1.0,1.0,22,1,correct rejection,0
sub-041,active,pic-present,1,1.0,1.0,2.0,22,1,hit,0
sub-041,inactive,pic-present,1,1.0,1.0,3.0,22,1,hit,0
sub-041,active,pic-absent,0,1.0,2.0,0.0,23,1,correct rejection,0
sub-041,inactive,pic-present,0,1.0,2.0,1.0,23,0,miss,0
sub-041,inactive,pic-present,1,1.0,2.0,2.0,23,1,hit,0
sub-041,active,pic-absent,0,1.0,2.0,3.0,23,1,correct rejection,0
sub-041,inactive,pic-present,1,1.0,3.0,0.0,24,1,hit,0
sub-041,inactive,pic-absent,1,1.0,3.0,1.0,24,0,false alarm,0
sub-041,active,pic-absent,1,1.0,3.0,2.0,24,0,false alarm,0
sub-041,inactive,pic-absent,0,1.0,3.0,3.0,24,1,correct rejection,0
sub-042,inactive,pic-present,1,0.0,0.0,0.0,9,1,hit,0
sub-042,active,pic-absent,1,0.0,0.0,1.0,9,0,false alarm,0
sub-042,inactive,pic-absent,0,0.0,0.0,2.0,9,1,correct rejection,0
sub-042,inactive,pic-present,1,0.0,0.0,3.0,9,1,hit,0
sub-042,active,pic-present,1,0.0,1.0,0.0,10,1,hit,0
sub-042,inactive,pic-absent,1,0.0,1.0,1.0,10,0,false alarm,0
sub-042,active,pic-present,0,0.0,1.0,2.0,10,0,miss,0
sub-042,active,pic-present,0,0.0,1.0,3.0,10,0,miss,0
sub-042,inactive,pic-absent,1,0.0,2.0,0.0,11,0,false alarm,0
sub-042,active,pic-present,0,0.0,2.0,1.0,11,0,miss,0
sub-042,inactive,pic-present,1,0.0,2.0,2.0,11,1,hit,0
sub-042,inactive,pic-absent,1,0.0,2.0,3.0,11,0,false alarm,0
sub-042,active,pic-absent,0,0.0,3.0,0.0,12,1,correct rejection,0
sub-042,inactive,pic-present,1,0.0,3.0,1.0,12,1,hit,0
sub-042,active,pic-absent,1,0.0,3.0,2.0,12,0,false alarm,0
sub-042,active,pic-absent,0,0.0,3.0,3.0,12,1,correct rejection,0
sub-042,inactive,pic-present,1,1.0,0.0,0.0,21,1,hit,0
sub-042,active,pic-absent,0,1.0,0.0,1.0,21,1,correct rejection,0
sub-042,active,pic-absent,1,1.0,0.0,2.0,21,0,false alarm,0
sub-042,inactive,pic-present,1,1.0,0.0,3.0,21,1,hit,0
sub-042,active,pic-absent,0,1.0,1.0,0.0,22,1,correct rejection,0
sub-042,inactive,pic-absent,1,1.0,1.0,1.0,22,0,false alarm,0
sub-042,active,pic-present,1,1.0,1.0,2.0,22,1,hit,0
sub-042,inactive,pic-absent,1,1.0,1.0,3.0,22,0,false alarm,0
sub-042,active,pic-present,0,1.0,2.0,0.0,23,0,miss,0
sub-042,inactive,pic-present,1,1.0,2.0,1.0,23,1,hit,0
sub-042,inactive,pic-absent,1,1.0,2.0,2.0,23,0,false alarm,0
sub-042,active,pic-present,1,1.0,2.0,3.0,23,1,hit,0
sub-042,inactive,pic-absent,0,1.0,3.0,0.0,24,1,correct rejection,0
sub-042,active,pic-present,0,1.0,3.0,1.0,24,0,miss,0
sub-042,inactive,pic-present,1,1.0,3.0,2.0,24,1,hit,0
sub-042,active,pic-absent,0,1.0,3.0,3.0,24,1,correct rejection,0
sub-043,inactive,pic-present,1,0.0,0.0,0.0,9,1,hit,0
sub-043,active,pic-absent,0,0.0,0.0,1.0,9,1,correct rejection,0
sub-043,inactive,pic-present,0,0.0,0.0,2.0,9,0,miss,0
sub-043,inactive,pic-absent,0,0.0,0.0,3.0,9,1,correct rejection,0
sub-043,active,pic-absent,1,0.0,1.0,0.0,10,0,false alarm,0
sub-043,inactive,pic-present,1,0.0,1.0,1.0,10,1,hit,0
sub-043,active,pic-absent,0,0.0,1.0,2.0,10,1,correct rejection,0
sub-043,inactive,pic-present,0,0.0,1.0,3.0,10,0,miss,0
sub-043,active,pic-present,1,0.0,2.0,0.0,11,1,hit,0
sub-043,inactive,pic-absent,0,0.0,2.0,1.0,11,1,correct rejection,0
sub-043,inactive,pic-absent,0,0.0,2.0,2.0,11,1,correct rejection,0
sub-043,active,pic-present,0,0.0,2.0,3.0,11,0,miss,0
sub-043,inactive,pic-absent,0,0.0,3.0,0.0,12,1,correct rejection,0
sub-043,active,pic-present,1,0.0,3.0,1.0,12,1,hit,0
sub-043,active,pic-present,1,0.0,3.0,2.0,12,1,hit,0
sub-043,active,pic-absent,0,0.0,3.0,3.0,12,1,correct rejection,0
sub-043,inactive,pic-absent,0,1.0,0.0,0.0,21,1,correct rejection,0
sub-043,active,pic-present,1,1.0,0.0,1.0,21,1,hit,0
sub-043,inactive,pic-absent,0,1.0,0.0,2.0,21,1,correct rejection,0
sub-043,active,pic-present,0,1.0,0.0,3.0,21,0,miss,0
sub-043,inactive,pic-present,0,1.0,1.0,0.0,22,0,miss,0
sub-043,active,pic-absent,0,1.0,1.0,1.0,22,1,correct rejection,0
sub-043,inactive,pic-present,1,1.0,1.0,2.0,22,1,hit,0
sub-043,active,pic-absent,0,1.0,1.0,3.0,22,1,correct rejection,0
sub-043,active,pic-absent,0,1.0,2.0,0.0,23,1,correct rejection,0
sub-043,inactive,pic-present,0,1.0,2.0,1.0,23,0,miss,0
sub-043,active,pic-absent,0,1.0,2.0,2.0,23,1,correct rejection,0
sub-043,inactive,pic-absent,1,1.0,2.0,3.0,23,0,false alarm,0
sub-043,active,pic-present,1,1.0,3.0,0.0,24,1,hit,0
sub-043,inactive,pic-absent,1,1.0,3.0,1.0,24,0,false alarm,0
sub-043,active,pic-present,0,1.0,3.0,2.0,24,0,miss,0
sub-043,inactive,pic-present,0,1.0,3.0,3.0,24,0,miss,0
sub-044,active,pic-present,1,0.0,0.0,0.0,9,1,hit,0
sub-044,inactive,pic-absent,0,0.0,0.0,1.0,9,1,correct rejection,0
sub-044,active,pic-present,0,0.0,0.0,2.0,9,0,miss,0
sub-044,active,pic-present,1,0.0,0.0,3.0,9,1,hit,0
sub-044,inactive,pic-absent,0,0.0,1.0,0.0,10,1,correct rejection,0
sub-044,active,pic-present,0,0.0,1.0,1.0,10,0,miss,0
sub-044,active,pic-absent,0,0.0,1.0,2.0,10,1,correct rejection,0
sub-044,inactive,pic-absent,0,0.0,1.0,3.0,10,1,correct rejection,0
sub-044,inactive,pic-present,1,0.0,2.0,0.0,11,1,hit,0
sub-044,active,pic-absent,0,0.0,2.0,1.0,11,1,correct rejection,0
sub-044,inactive,pic-present,1,0.0,2.0,2.0,11,1,hit,0
sub-044,inactive,pic-present,1,0.0,2.0,3.0,11,1,hit,0
sub-044,active,pic-absent,0,0.0,3.0,0.0,12,1,correct rejection,0
sub-044,inactive,pic-present,0,0.0,3.0,1.0,12,0,miss,0
sub-044,inactive,pic-absent,1,0.0,3.0,2.0,12,0,false alarm,0
sub-044,active,pic-absent,0,0.0,3.0,3.0,12,1,correct rejection,0
sub-044,inactive,pic-present,1,1.0,0.0,0.0,21,1,hit,0
sub-044,inactive,pic-absent,0,1.0,0.0,1.0,21,1,correct rejection,0
sub-044,active,pic-absent,0,1.0,0.0,2.0,21,1,correct rejection,0
sub-044,inactive,pic-present,0,1.0,0.0,3.0,21,0,miss,0
sub-044,active,pic-absent,1,1.0,1.0,1.0,22,0,false alarm,0
sub-044,inactive,pic-present,0,1.0,1.0,2.0,22,0,miss,0
sub-044,active,pic-absent,0,1.0,1.0,3.0,22,1,correct rejection,0
sub-044,active,pic-absent,0,1.0,2.0,0.0,23,1,correct rejection,0
sub-044,inactive,pic-present,1,1.0,2.0,1.0,23,1,hit,0
sub-044,inactive,pic-absent,0,1.0,2.0,2.0,23,1,correct rejection,0
sub-044,active,pic-present,1,1.0,2.0,3.0,23,1,hit,0
sub-044,inactive,pic-absent,0,1.0,3.0,0.0,24,1,correct rejection,0
sub-044,active,pic-present,1,1.0,3.0,1.0,24,1,hit,0
sub-044,active,pic-present,1,1.0,3.0,2.0,24,1,hit,0
sub-044,inactive,pic-absent,0,1.0,3.0,3.0,24,1,correct rejection,0
sub-045,active,pic-absent,0,0.0,0.0,0.0,9,1,correct rejection,0
sub-045,inactive,pic-present,1,0.0,0.0,1.0,9,1,hit,0
sub-045,active,pic-absent,0,0.0,0.0,2.0,9,1,correct rejection,0
sub-045,active,pic-absent,0,0.0,0.0,3.0,9,1,correct rejection,0
sub-045,inactive,pic-present,0,0.0,1.0,0.0,10,0,miss,0
sub-045,inactive,pic-absent,0,0.0,1.0,1.0,10,1,correct rejection,0
sub-045,active,pic-present,1,0.0,1.0,2.0,10,1,hit,0
sub-045,active,pic-present,0,0.0,1.0,3.0,10,0,miss,0
sub-045,inactive,pic-absent,0,0.0,2.0,0.0,11,1,correct rejection,0
sub-045,active,pic-present,1,0.0,2.0,1.0,11,1,hit,0
sub-045,inactive,pic-absent,0,0.0,2.0,2.0,11,1,correct rejection,0
sub-045,inactive,pic-absent,0,0.0,2.0,3.0,11,1,correct rejection,0
sub-045,active,pic-present,0,0.0,3.0,0.0,12,0,miss,0
sub-045,active,pic-absent,0,0.0,3.0,1.0,12,1,correct rejection,0
sub-045,inactive,pic-present,1,0.0,3.0,2.0,12,1,hit,0
sub-045,inactive,pic-present,1,0.0,3.0,3.0,12,1,hit,0
sub-045,inactive,pic-absent,0,1.0,0.0,0.0,21,1,correct rejection,0
sub-045,active,pic-present,1,1.0,0.0,1.0,21,1,hit,0
sub-045,inactive,pic-present,1,1.0,0.0,2.0,21,1,hit,0
sub-045,inactive,pic-absent,0,1.0,0.0,3.0,21,1,correct rejection,0
sub-045,active,pic-present,1,1.0,1.0,0.0,22,1,hit,0
sub-045,inactive,pic-absent,0,1.0,1.0,1.0,22,1,correct rejection,0
sub-045,active,pic-present,0,1.0,1.0,2.0,22,0,miss,0
sub-045,inactive,pic-present,1,1.0,1.0,3.0,22,1,hit,0
sub-045,active,pic-absent,0,1.0,2.0,0.0,23,1,correct rejection,0
sub-045,inactive,pic-present,1,1.0,2.0,1.0,23,1,hit,0
sub-045,active,pic-absent,0,1.0,2.0,2.0,23,1,correct rejection,0
sub-045,active,pic-absent,1,1.0,2.0,3.0,23,0,false alarm,0
sub-045,inactive,pic-present,1,1.0,3.0,0.0,24,1,hit,0
sub-045,active,pic-absent,0,1.0,3.0,1.0,24,1,correct rejection,0
sub-045,inactive,pic-absent,0,1.0,3.0,2.0,24,1,correct rejection,0
sub-045,active,pic-present,1,1.0,3.0,3.0,24,1,hit,0
sub-046,inactive,pic-present,1,0.0,0.0,0.0,9,1,hit,0
sub-046,active,pic-absent,1,0.0,0.0,1.0,9,0,false alarm,0
sub-046,inactive,pic-absent,0,0.0,0.0,2.0,9,1,correct rejection,0
sub-046,active,pic-present,1,0.0,0.0,3.0,9,1,hit,0
sub-046,inactive,pic-absent,0,0.0,1.0,0.0,10,1,correct rejection,0
sub-046,active,pic-present,1,0.0,1.0,1.0,10,1,hit,0
sub-046,active,pic-absent,1,0.0,1.0,2.0,10,0,false alarm,0
sub-046,inactive,pic-present,1,0.0,1.0,3.0,10,1,hit,0
sub-046,active,pic-present,1,0.0,2.0,0.0,11,1,hit,0
sub-046,inactive,pic-absent,0,0.0,2.0,1.0,11,1,correct rejection,0
sub-046,active,pic-present,1,0.0,2.0,2.0,11,1,hit,0
sub-046,inactive,pic-absent,0,0.0,2.0,3.0,11,1,correct rejection,0
sub-046,active,pic-absent,0,0.0,3.0,0.0,12,1,correct rejection,0
sub-046,inactive,pic-present,1,0.0,3.0,1.0,12,1,hit,0
sub-046,inactive,pic-present,1,0.0,3.0,2.0,12,1,hit,0
sub-046,active,pic-absent,0,0.0,3.0,3.0,12,1,correct rejection,0
sub-046,inactive,pic-present,1,1.0,0.0,0.0,21,1,hit,0
sub-046,inactive,pic-present,0,1.0,0.0,1.0,21,0,miss,0
sub-046,active,pic-absent,0,1.0,0.0,2.0,21,1,correct rejection,0
sub-046,inactive,pic-present,1,1.0,0.0,3.0,21,1,hit,0
sub-046,active,pic-absent,0,1.0,1.0,0.0,22,1,correct rejection,0
sub-046,active,pic-present,1,1.0,1.0,1.0,22,1,hit,0
sub-046,inactive,pic-absent,0,1.0,1.0,2.0,22,1,correct rejection,0
sub-046,active,pic-present,1,1.0,1.0,3.0,22,1,hit,0
sub-046,inactive,pic-absent,1,1.0,2.0,0.0,23,0,false alarm,0
sub-046,active,pic-absent,0,1.0,2.0,1.0,23,1,correct rejection,0
sub-046,active,pic-present,1,1.0,2.0,2.0,23,1,hit,0
sub-046,inactive,pic-absent,0,1.0,2.0,3.0,23,1,correct rejection,0
sub-046,active,pic-present,1,1.0,3.0,0.0,24,1,hit,0
sub-046,inactive,pic-absent,0,1.0,3.0,1.0,24,1,correct rejection,0
sub-046,inactive,pic-present,1,1.0,3.0,2.0,24,1,hit,0
sub-046,active,pic-absent,1,1.0,3.0,3.0,24,0,false alarm,0
sub-047,active,pic-absent,1,0.0,0.0,0.0,9,0,false alarm,1
sub-047,active,pic-present,0,0.0,0.0,1.0,9,0,miss,1
sub-047,inactive,pic-absent,1,0.0,0.0,2.0,9,0,false alarm,1
sub-047,inactive,pic-absent,1,0.0,0.0,3.0,9,0,false alarm,1
sub-047,active,pic-present,1,0.0,1.0,0.0,10,1,hit,1
sub-047,inactive,pic-absent,1,0.0,1.0,1.0,10,0,false alarm,1
sub-047,inactive,pic-present,0,0.0,1.0,2.0,10,0,miss,1
sub-047,active,pic-present,0,0.0,1.0,3.0,10,0,miss,1
sub-047,inactive,pic-absent,0,0.0,2.0,0.0,11,1,correct rejection,1
sub-047,inactive,pic-present,1,0.0,2.0,1.0,11,1,hit,1
sub-047,active,pic-absent,1,0.0,2.0,2.0,11,0,false alarm,1
sub-047,active,pic-absent,0,0.0,2.0,3.0,11,1,correct rejection,1
sub-047,inactive,pic-present,0,0.0,3.0,0.0,12,0,miss,1
sub-047,active,pic-absent,1,0.0,3.0,1.0,12,0,false alarm,1
sub-047,active,pic-present,1,0.0,3.0,2.0,12,1,hit,1
sub-047,inactive,pic-present,0,0.0,3.0,3.0,12,0,miss,1
sub-047,active,pic-absent,0,1.0,0.0,0.0,21,1,correct rejection,1
sub-047,inactive,pic-present,0,1.0,0.0,1.0,21,0,miss,1
sub-047,inactive,pic-absent,1,1.0,0.0,2.0,21,0,false alarm,1
sub-047,active,pic-absent,1,1.0,0.0,3.0,21,0,false alarm,1
sub-047,inactive,pic-present,1,1.0,1.0,0.0,22,1,hit,1
sub-047,active,pic-absent,0,1.0,1.0,1.0,22,1,correct rejection,1
sub-047,inactive,pic-present,1,1.0,1.0,2.0,22,1,hit,1
sub-047,active,pic-present,1,1.0,1.0,3.0,22,1,hit,1
sub-047,inactive,pic-absent,0,1.0,2.0,0.0,23,1,correct rejection,1
sub-047,active,pic-present,1,1.0,2.0,1.0,23,1,hit,1
sub-047,active,pic-present,1,1.0,2.0,2.0,23,1,hit,1
sub-047,inactive,pic-absent,0,1.0,2.0,3.0,23,1,correct rejection,1
sub-047,active,pic-present,1,1.0,3.0,0.0,24,1,hit,1
sub-047,inactive,pic-absent,0,1.0,3.0,1.0,24,1,correct rejection,1
sub-047,active,pic-absent,0,1.0,3.0,2.0,24,1,correct rejection,1
sub-047,inactive,pic-present,1,1.0,3.0,3.0,24,1,hit,1
sub-048,active,pic-absent,0,0.0,0.0,0.0,9,1,correct rejection,0
sub-048,inactive,pic-present,1,0.0,0.0,1.0,9,1,hit,0
sub-048,active,pic-absent,1,0.0,0.0,2.0,9,0,false alarm,0
sub-048,active,pic-absent,1,0.0,0.0,3.0,9,0,false alarm,0
sub-048,inactive,pic-present,1,0.0,1.0,0.0,10,1,hit,0
sub-048,active,pic-absent,0,0.0,1.0,1.0,10,1,correct rejection,0
sub-048,inactive,pic-absent,0,0.0,1.0,2.0,10,1,correct rejection,0
sub-048,active,pic-present,1,0.0,1.0,3.0,10,1,hit,0
sub-048,inactive,pic-absent,0,0.0,2.0,0.0,11,1,correct rejection,0
sub-048,active,pic-present,1,0.0,2.0,1.0,11,1,hit,0
sub-048,inactive,pic-present,1,0.0,2.0,2.0,11,1,hit,0
sub-048,inactive,pic-absent,0,0.0,2.0,3.0,11,1,correct rejection,0
sub-048,active,pic-present,1,0.0,3.0,0.0,12,1,hit,0
sub-048,inactive,pic-absent,0,0.0,3.0,1.0,12,1,correct rejection,0
sub-048,active,pic-present,1,0.0,3.0,2.0,12,1,hit,0
sub-048,inactive,pic-present,1,0.0,3.0,3.0,12,1,hit,0
sub-048,inactive,pic-absent,0,1.0,0.0,0.0,21,1,correct rejection,0
sub-048,active,pic-present,1,1.0,0.0,1.0,21,1,hit,0
sub-048,active,pic-absent,0,1.0,0.0,2.0,21,1,correct rejection,0
sub-048,inactive,pic-present,1,1.0,0.0,3.0,21,1,hit,0
sub-048,active,pic-present,1,1.0,1.0,0.0,22,1,hit,0
sub-048,active,pic-absent,1,1.0,1.0,1.0,22,0,false alarm,0
sub-048,inactive,pic-absent,0,1.0,1.0,2.0,22,1,correct rejection,0
sub-048,active,pic-present,1,1.0,1.0,3.0,22,1,hit,0
sub-048,active,pic-absent,0,1.0,2.0,0.0,23,1,correct rejection,0
sub-048,inactive,pic-present,1,1.0,2.0,1.0,23,1,hit,0
sub-048,inactive,pic-present,1,1.0,2.0,2.0,23,1,hit,0
sub-048,active,pic-absent,0,1.0,2.0,3.0,23,1,correct rejection,0
sub-048,inactive,pic-present,1,1.0,3.0,0.0,24,1,hit,0
sub-048,inactive,pic-absent,0,1.0,3.0,1.0,24,1,correct rejection,0
sub-048,active,pic-present,1,1.0,3.0,2.0,24,1,hit,0
sub-048,inactive,pic-absent,1,1.0,3.0,3.0,24,0,false alarm,0
sub-049,inactive,pic-present,1,0.0,0.0,0.0,9,1,hit,0
sub-049,inactive,pic-absent,0,0.0,0.0,1.0,9,1,correct rejection,0
sub-049,active,pic-present,1,0.0,0.0,2.0,9,1,hit,0
sub-049,inactive,pic-absent,0,0.0,0.0,3.0,9,1,correct rejection,0
sub-049,active,pic-present,0,0.0,1.0,0.0,10,0,miss,0
sub-049,active,pic-absent,0,0.0,1.0,1.0,10,1,correct rejection,0
sub-049,inactive,pic-present,1,0.0,1.0,2.0,10,1,hit,0
sub-049,active,pic-absent,0,0.0,1.0,3.0,10,1,correct rejection,0
sub-049,inactive,pic-absent,1,0.0,2.0,0.0,11,0,false alarm,0
sub-049,inactive,pic-present,1,0.0,2.0,1.0,11,1,hit,0
sub-049,active,pic-absent,0,0.0,2.0,2.0,11,1,correct rejection,0
sub-049,inactive,pic-present,1,0.0,2.0,3.0,11,1,hit,0
sub-049,active,pic-absent,0,0.0,3.0,0.0,12,1,correct rejection,0
sub-049,active,pic-present,0,0.0,3.0,1.0,12,0,miss,0
sub-049,inactive,pic-absent,1,0.0,3.0,2.0,12,0,false alarm,0
sub-049,active,pic-present,1,0.0,3.0,3.0,12,1,hit,0
sub-049,inactive,pic-present,1,1.0,0.0,0.0,21,1,hit,0
sub-049,active,pic-absent,1,1.0,0.0,1.0,21,0,false alarm,0
sub-049,inactive,pic-absent,0,1.0,0.0,2.0,21,1,correct rejection,0
sub-049,inactive,pic-present,1,1.0,0.0,3.0,21,1,hit,0
sub-049,active,pic-absent,0,1.0,1.0,0.0,22,1,correct rejection,0
sub-049,inactive,pic-present,1,1.0,1.0,1.0,22,1,hit,0
sub-049,active,pic-absent,0,1.0,1.0,2.0,22,1,correct rejection,0
sub-049,active,pic-present,1,1.0,1.0,3.0,22,1,hit,0
sub-049,inactive,pic-absent,0,1.0,2.0,0.0,23,1,correct rejection,0
sub-049,active,pic-present,1,1.0,2.0,1.0,23,1,hit,0
sub-049,inactive,pic-present,0,1.0,2.0,2.0,23,0,miss,0
sub-049,inactive,pic-absent,1,1.0,2.0,3.0,23,0,false alarm,0
sub-049,active,pic-present,0,1.0,3.0,0.0,24,0,miss,0
sub-049,inactive,pic-absent,1,1.0,3.0,1.0,24,0,false alarm,0
sub-049,active,pic-present,1,1.0,3.0,2.0,24,1,hit,0
sub-049,active,pic-absent,0,1.0,3.0,3.0,24,1,correct rejection,0
sub-050,inactive,pic-absent,0,0.0,0.0,0.0,9,1,correct rejection,0
sub-050,inactive,pic-present,1,0.0,0.0,1.0,9,1,hit,0
sub-050,active,pic-present,0,0.0,0.0,2.0,9,0,miss,0
sub-050,inactive,pic-absent,1,0.0,0.0,3.0,9,0,false alarm,0
sub-050,active,pic-absent,0,0.0,1.0,0.0,10,1,correct rejection,0
sub-050,active,pic-present,1,0.0,1.0,1.0,10,1,hit,0
sub-050,inactive,pic-present,0,0.0,1.0,2.0,10,0,miss,0
sub-050,active,pic-absent,0,0.0,1.0,3.0,10,1,correct rejection,0
sub-050,inactive,pic-present,1,0.0,2.0,0.0,11,1,hit,0
sub-050,inactive,pic-absent,0,0.0,2.0,1.0,11,1,correct rejection,0
sub-050,active,pic-absent,1,0.0,2.0,2.0,11,0,false alarm,0
sub-050,inactive,pic-present,1,0.0,2.0,3.0,11,1,hit,0
sub-050,active,pic-present,1,0.0,3.0,0.0,12,1,hit,0
sub-050,active,pic-absent,0,0.0,3.0,1.0,12,1,correct rejection,0
sub-050,inactive,pic-absent,0,0.0,3.0,2.0,12,1,correct rejection,0
sub-050,active,pic-present,0,0.0,3.0,3.0,12,0,miss,0
sub-050,inactive,pic-absent,0,1.0,0.0,0.0,21,1,correct rejection,0
sub-050,inactive,pic-absent,0,1.0,0.0,1.0,21,1,correct rejection,0
sub-050,active,pic-present,0,1.0,0.0,2.0,21,0,miss,0
sub-050,inactive,pic-absent,0,1.0,0.0,3.0,21,1,correct rejection,0
sub-050,active,pic-present,1,1.0,1.0,0.0,22,1,hit,0
sub-050,active,pic-present,1,1.0,1.0,1.0,22,1,hit,0
sub-050,inactive,pic-absent,0,1.0,1.0,2.0,22,1,correct rejection,0
sub-050,active,pic-absent,0,1.0,1.0,3.0,22,1,correct rejection,0
sub-050,inactive,pic-present,1,1.0,2.0,0.0,23,1,hit,0
sub-050,inactive,pic-present,1,1.0,2.0,1.0,23,1,hit,0
sub-050,active,pic-absent,0,1.0,2.0,2.0,23,1,correct rejection,0
sub-050,inactive,pic-present,1,1.0,2.0,3.0,23,1,hit,0
sub-050,active,pic-absent,0,1.0,3.0,0.0,24,1,correct rejection,0
sub-050,active,pic-absent,0,1.0,3.0,1.0,24,1,correct rejection,0
sub-050,inactive,pic-present,1,1.0,3.0,2.0,24,1,hit,0
sub-050,active,pic-present,1,1.0,3.0,3.0,24,1,hit,0
sub-051,inactive,pic-absent,1,0.0,0.0,0.0,9,0,false alarm,0
sub-051,active,pic-present,1,0.0,0.0,1.0,9,1,hit,0
sub-051,active,pic-present,0,0.0,0.0,2.0,9,0,miss,0
sub-051,inactive,pic-absent,0,0.0,0.0,3.0,9,1,correct rejection,0
sub-051,active,pic-absent,1,0.0,1.0,0.0,10,0,false alarm,0
sub-051,inactive,pic-present,1,0.0,1.0,1.0,10,1,hit,0
sub-051,active,pic-absent,1,0.0,1.0,2.0,10,0,false alarm,0
sub-051,active,pic-present,1,0.0,1.0,3.0,10,1,hit,0
sub-051,inactive,pic-present,1,0.0,2.0,0.0,11,1,hit,0
sub-051,active,pic-absent,0,0.0,2.0,1.0,11,1,correct rejection,0
sub-051,inactive,pic-present,1,0.0,2.0,2.0,11,1,hit,0
sub-051,active,pic-absent,1,0.0,2.0,3.0,11,0,false alarm,0
sub-051,active,pic-present,0,0.0,3.0,0.0,12,0,miss,0
sub-051,inactive,pic-absent,0,0.0,3.0,1.0,12,1,correct rejection,0
sub-051,inactive,pic-absent,1,0.0,3.0,2.0,12,0,false alarm,0
sub-051,inactive,pic-present,0,0.0,3.0,3.0,12,0,miss,0
sub-051,active,pic-present,1,1.0,0.0,0.0,21,1,hit,0
sub-051,active,pic-absent,0,1.0,0.0,1.0,21,1,correct rejection,0
sub-051,inactive,pic-present,1,1.0,0.0,2.0,21,1,hit,0
sub-051,inactive,pic-absent,1,1.0,0.0,3.0,21,0,false alarm,0
sub-051,active,pic-absent,0,1.0,1.0,0.0,22,1,correct rejection,0
sub-051,inactive,pic-present,0,1.0,1.0,1.0,22,0,miss,0
sub-051,active,pic-absent,0,1.0,1.0,2.0,22,1,correct rejection,0
sub-051,active,pic-absent,0,1.0,1.0,3.0,22,1,correct rejection,0
sub-051,inactive,pic-present,1,1.0,2.0,0.0,23,1,hit,0
sub-051,inactive,pic-absent,0,1.0,2.0,1.0,23,1,correct rejection,0
sub-051,active,pic-present,0,1.0,2.0,2.0,23,0,miss,0
sub-051,inactive,pic-present,0,1.0,2.0,3.0,23,0,miss,0
sub-051,inactive,pic-absent,0,1.0,3.0,0.0,24,1,correct rejection,0
sub-051,active,pic-present,1,1.0,3.0,1.0,24,1,hit,0
sub-051,inactive,pic-absent,0,1.0,3.0,2.0,24,1,correct rejection,0
sub-051,active,pic-present,0,1.0,3.0,3.0,24,0,miss,0
