trials.thisRepN,trials.thisTrialN,trials.thisN,trials.thisIndex,loop_test.thisRepN,loop_test.thisTrialN,loop_test.thisN,loop_test.thisIndex,loop_eval_discri.thisRepN,loop_eval_discri.thisTrialN,loop_eval_discri.thisN,loop_eval_discri.thisIndex,loop_eval.thisRepN,loop_eval.thisTrialN,loop_eval.thisN,loop_eval.thisIndex,loop_discri.thisRepN,loop_discri.thisTrialN,loop_discri.thisN,loop_discri.thisIndex,thisRow.t,notes,Set_up.started,Set_up.stopped,electrode_check.started,electrode_check.stopped,instructions_eval.started,instructions_eval.stopped,pause_5_test.started,pause_5_test.stopped,Phase_Test.started,thermode_locali.started,Phase_Test.stopped,loca_thermode,condition,temp_trial_sent,eval_douleur.started,eval_douleur.stopped,ratingScale.response,ratingScale.rt,thermode_locali.stopped,Fin_test.started,text.started,Fin_test.stopped,pause_5_EVA.started,pause_5_EVA.stopped,tâche_EVA.started,thermode_locali_EVA.started,thermode_locali_EVA.stopped,tâche_EVA.stopped,instructions_discrim.started,instructions_discrim.stopped,pause_5_pic.started,pause_5_pic.stopped,tâche_PIC.started,thermode_locali_pic.started,percu_or.started,responser.started,thermode_locali_pic.stopped,percu_or.stopped,responser.stopped,tâche_PIC.stopped,dur_plateau1,dur_plateau2,dur_plateau1_sent,dur_plateau2_sent,start_plateau_2_resp,dur_pic,dur_rise,pic_presence,pic_response,discrimin_resp.keys,discrimin_resp.rt,discrimin_resp.duration,break_entre_bloc.started,break_entre_bloc.stopped,merci.started,merci.stopped,participant,temp_flat,temp_active,temp_pic_set,com_thermode,date,expName,psychopyVersion,frameRate,expStart,
0,0,0,0,0,0,0,0,,,,,,,,,,,,,252.5071489000693,,0.004128799773752689,236.27387559972703,236.27429130021483,237.8405181998387,237.84052629955113,252.47406649962068,252.474382000044,257.49056939966977,257.490574600175,257.5106302993372,269.49068799987435,0,active,41.6,269.4909180998802,273.51003360003233,0.0,3.994,,,,,,,,,,,,,,,,,,,,,,,,,,,,,,,,,,,,,,,sub-071,43.8,41.6,44.68,COM3,2026-02-05_10h40.40.774,2024_RDpaindiscrimination_maintask,2023.2.3,60.01860576972041,2026-02-05 10h41.13.037258 -0500,
0,0,0,0,1,0,1,0,,,,,,,,,,,,,273.52418239973485,,,,,,,,273.5109019000083,278.50765819940716,278.50766349956393,278.52412899956107,290.5079052997753,1,inactive,43.8,290.5080410996452,294.07650979980826,46.499999999999986,3.548,290.54092600010335,,,,,,,,,,,,,,,,,,,,,,,,,,,,,,,,,,,,,,sub-071,43.8,41.6,44.68,COM3,2026-02-05_10h40.40.774,2024_RDpaindiscrimination_maintask,2023.2.3,60.01860576972041,2026-02-05 10h41.13.037258 -0500,
0,0,0,0,2,0,2,0,,,,,,,,,,,,,294.0910262996331,,,,,,,,294.07729029934853,299.07448389939964,299.0744894994423,299.0909815002233,311.0748451994732,2,active,41.6,311.0749829001725,313.74343219958246,44.50000000000009,2.648,311.1077782995999,,,,,,,,,,,,,,,,,,,,,,,,,,,,,,,,,,,,,,sub-071,43.8,41.6,44.68,COM3,2026-02-05_10h40.40.774,2024_RDpaindiscrimination_maintask,2023.2.3,60.01860576972041,2026-02-05 10h41.13.037258 -0500,
0,0,0,0,3,0,3,0,,,,,,,,,,,,,313.7579112993553,,,,,,,,313.74418759997934,318.7414261996746,318.74143300019205,318.758014800027,330.74174319952726,3,inactive,43.8,330.74188090022653,332.97739470005035,70.99999999999996,2.215,330.77474969998,,,,,,,,,,,,,,,,,,,,,,,,,,,,,,,,,,,,,,sub-071,43.8,41.6,44.68,COM3,2026-02-05_10h40.40.774,2024_RDpaindiscrimination_maintask,2023.2.3,60.01860576972041,2026-02-05 10h41.13.037258 -0500,
0,0,0,0,4,0,4,0,,,,,,,,,,,,,332.99144309945405,,,,,,,,332.9781374000013,337.9749711994082,337.9749782998115,337.9915293995291,349.97530080005527,0,inactive,43.8,349.9754372993484,351.97776279971004,30.0,1.982,350.0082812998444,,,,,,,,,,,,,,,,,,,,,,,,,,,,,,,,,,,,,,sub-071,43.8,41.6,44.68,COM3,2026-02-05_10h40.40.774,2024_RDpaindiscrimination_maintask,2023.2.3,60.01860576972041,2026-02-05 10h41.13.037258 -0500,
0,0,0,0,5,0,5,0,,,,,,,,,,,,,351.9915653998032,,,,,,,,351.9785878993571,356.97528189979494,356.97528779972345,356.99173569958657,368.97553060017526,1,active,41.6,368.97567139938474,371.6102078994736,21.000000000000068,2.613,369.00854909978807,,,,,,,,,,,,,,,,,,,,,,,,,,,,,,,,,,,,,,sub-071,43.8,41.6,44.68,COM3,2026-02-05_10h40.40.774,2024_RDpaindiscrimination_maintask,2023.2.3,60.01860576972041,2026-02-05 10h41.13.037258 -0500,
0,0,0,0,6,0,6,0,,,,,,,,,,,,,371.62516289949417,,,,,,,,371.6109724994749,376.60879939980805,376.6088054999709,376.6253108996898,388.6091521997005,2,inactive,43.8,388.6092898994684,392.32720080018044,72.99999999999982,3.697,388.64210569951683,,,,,,,,,,,,,,,,,,,,,,,,,,,,,,,,,,,,,,sub-071,43.8,41.6,44.68,COM3,2026-02-05_10h40.40.774,2024_RDpaindiscrimination_maintask,2023.2.3,60.01860576972041,2026-02-05 10h41.13.037258 -0500,
0,0,0,0,7,0,7,0,,,,,,,,,,,,,392.3421521000564,,,,,,,,392.3279523998499,397.3255767999217,397.32558210007846,397.34208009950817,409.3259937996045,3,active,41.6,409.32613020017743,411.7609364995733,55.49999999999998,2.414,409.35902460012585,,,,,,,,,,,,,,,,,,,,,,,,,,,,,,,,,,,,,,sub-071,43.8,41.6,44.68,COM3,2026-02-05_10h40.40.774,2024_RDpaindiscrimination_maintask,2023.2.3,60.01860576972041,2026-02-05 10h41.13.037258 -0500,
0,0,0,0,8,0,8,0,,,,,,,,,,,,,411.7757177995518,,,,,,,,411.7617637999356,416.7592156995088,416.75922140013427,416.77574179973453,428.75955449976027,0,active,41.6,428.7596912998706,431.2941057002172,29.000000000000075,2.513,428.7928179996088,,,,,,,,,,,,,,,,,,,,,,,,,,,,,,,,,,,,,,sub-071,43.8,41.6,44.68,COM3,2026-02-05_10h40.40.774,2024_RDpaindiscrimination_maintask,2023.2.3,60.01860576972041,2026-02-05 10h41.13.037258 -0500,
0,0,0,0,9,0,9,0,,,,,,,,,,,,,431.30926299933344,,,,,,,,431.29443230014294,436.2927513998002,436.2927569001913,436.3093149000779,448.2930234000087,1,inactive,43.8,448.2931589996442,450.91093329992145,45.49999999999991,2.597,448.3261338993907,,,,,,,,,,,,,,,,,,,,,,,,,,,,,,,,,,,,,,sub-071,43.8,41.6,44.68,COM3,2026-02-05_10h40.40.774,2024_RDpaindiscrimination_maintask,2023.2.3,60.01860576972041,2026-02-05 10h41.13.037258 -0500,
0,0,0,0,10,0,10,0,,,,,,,,,,,,,450.92619139980525,,,,,,,,450.9117593001574,455.90970109961927,455.90970689989626,455.92621190007776,467.9100526999682,2,inactive,43.8,467.9101951997727,470.6625229995698,70.99999999999989,2.732,467.9429844999686,,,,,,,,,,,,,,,,,,,,,,,,,,,,,,,,,,,,,,sub-071,43.8,41.6,44.68,COM3,2026-02-05_10h40.40.774,2024_RDpaindiscrimination_maintask,2023.2.3,60.01860576972041,2026-02-05 10h41.13.037258 -0500,
0,0,0,0,11,0,11,0,,,,,,,,,,,,,470.6763474000618,,,,,,,,470.66334529966116,475.65986819937825,475.6598736997694,475.6764601999894,487.66032369993627,3,active,41.6,487.6604629997164,490.8452631998807,50.99999999999997,3.164,487.6933070998639,,,,,,,,,,,,,,,,,,,,,,,,,,,,,,,,,,,,,,sub-071,43.8,41.6,44.68,COM3,2026-02-05_10h40.40.774,2024_RDpaindiscrimination_maintask,2023.2.3,60.01860576972041,2026-02-05 10h41.13.037258 -0500,
0,0,0,0,12,0,12,0,,,,,,,,,,,,,490.8600143995136,,,,,,,,490.8460876001045,495.84349989984185,495.84350589942187,495.85995890013874,507.8438774999231,0,inactive,43.8,507.8440127996728,510.2791292993352,31.000000000000032,2.367,507.92688419949263,,,,,,,,,,,,,,,,,,,,,,,,,,,,,,,,,,,,,,sub-071,43.8,41.6,44.68,COM3,2026-02-05_10h40.40.774,2024_RDpaindiscrimination_maintask,2023.2.3,60.01860576972041,2026-02-05 10h41.13.037258 -0500,
0,0,0,0,13,0,13,0,,,,,,,,,,,,,510.29359619971365,,,,,,,,510.2798966001719,515.2771279001608,515.2771338000894,515.2935732994229,527.2774321995676,1,active,41.6,527.2775750998408,530.9127159994096,30.500000000000142,3.614,527.3104678001255,,,,,,,,,,,,,,,,,,,,,,,,,,,,,,,,,,,,,,sub-071,43.8,41.6,44.68,COM3,2026-02-05_10h40.40.774,2024_RDpaindiscrimination_maintask,2023.2.3,60.01860576972041,2026-02-05 10h41.13.037258 -0500,
0,0,0,0,14,0,14,0,,,,,,,,,,,,,530.9271551994607,,,,,,,,530.9134908998385,535.9107085000724,535.9107144000009,535.9272374995053,547.9110014000908,2,active,41.6,547.9111519996077,551.2459527999163,54.49999999999996,3.314,547.9440577002242,,,,,,,,,,,,,,,,,,,,,,,,,,,,,,,,,,,,,,sub-071,43.8,41.6,44.68,COM3,2026-02-05_10h40.40.774,2024_RDpaindiscrimination_maintask,2023.2.3,60.01860576972041,2026-02-05 10h41.13.037258 -0500,
0,0,0,0,15,0,15,0,,,,,,,,,,,,,551.2607873994857,,,,,,,,551.2466816995293,556.2442106995732,556.2442160993814,556.2608261993155,568.2445650994778,3,inactive,43.8,568.2446984993294,572.2634205995128,65.99999999999984,3.998,568.2775582997128,,,,,,,,,,,,,,,,,,,,,,,,,,,,,,,,,,,,,,sub-071,43.8,41.6,44.68,COM3,2026-02-05_10h40.40.774,2024_RDpaindiscrimination_maintask,2023.2.3,60.01860576972041,2026-02-05 10h41.13.037258 -0500,
0,0,0,0,,,,,0,0,0,0,0,0,0,0,,,,,615.9614722998813,,,,,,614.2286764997989,615.9451460000128,,,,,,0,inactive,43.8,632.9454315993935,636.7305052001029,35.99999999999998,3.765,,572.2639606995508,572.2776886997744,614.2283240994439,615.9454311998561,620.9450535001233,620.945059299469,620.9615294998512,632.9784151995555,632.9454242996871,,,,,,,,,,,,,,,,,,,,,,,,,,,,,sub-071,43.8,41.6,44.68,COM3,2026-02-05_10h40.40.774,2024_RDpaindiscrimination_maintask,2023.2.3,60.01860576972041,2026-02-05 10h41.13.037258 -0500,
0,0,0,0,,,,,0,0,0,0,1,0,1,0,,,,,636.7450783997774,,,,,,,,,,,,,1,active,43.8,653.7290099998936,656.5132683999836,45.500000000000085,2.764,,,,,636.7312536993995,641.728572299704,641.7285786997527,641.7450722996145,653.7619805000722,653.7290019998327,,,,,,,,,,,,,,,,,,,,,,,,,,,,,sub-071,43.8,41.6,44.68,COM3,2026-02-05_10h40.40.774,2024_RDpaindiscrimination_maintask,2023.2.3,60.01860576972041,2026-02-05 10h41.13.037258 -0500,
0,0,0,0,,,,,0,0,0,0,,,,,0,0,0,0,659.5619572000578,,,,,,,,,,,,,2,active,,,,,,,,,,,,,,,,656.513818799518,659.545566899702,659.5458899997175,664.5454992000014,664.5455051995814,664.5620286995545,672.5455684000626,672.5455684000626,675.5122683998197,675.5455901995301,675.5455901995301,675.5290772998706,3.92,4.88,392,488,8,1.2,0.75,pic-absent,0,m,0.7107747001573443,None,,,,,sub-071,43.8,41.6,44.68,COM3,2026-02-05_10h40.40.774,2024_RDpaindiscrimination_maintask,2023.2.3,60.01860576972041,2026-02-05 10h41.13.037258 -0500,
0,0,0,0,,,,,0,0,0,0,,,,,1,0,1,0,675.5455901995301,,,,,,,,,,,,,3,active,,,,,,,,,,,,,,,,,,675.5297095999122,680.529132399708,680.5291387001052,680.5456574000418,688.5290819993243,688.5290819993243,691.495792299509,691.5290321996436,691.5290321996436,691.5126064997166,3.96,4.84,396,484,8,1.2,0.75,pic-absent,0,m,0.5312401000410318,None,,,,,sub-071,43.8,41.6,44.68,COM3,2026-02-05_10h40.40.774,2024_RDpaindiscrimination_maintask,2023.2.3,60.01860576972041,2026-02-05 10h41.13.037258 -0500,
0,0,0,0,,,,,0,0,0,0,,,,,2,0,2,0,691.5290321996436,,,,,,,,,,,,,0,inactive,,,,,,,,,,,,,,,,,,691.5131041994318,696.5126799000427,696.5126868998632,696.5291949994862,704.5126299001276,704.5126299001276,707.479308899492,707.5126628000289,707.5126628000289,707.496145799756,4.32,4.48,432,448,8,1.2,0.75,pic-present,1,n,0.6361434999853373,None,,,,,sub-071,43.8,41.6,44.68,COM3,2026-02-05_10h40.40.774,2024_RDpaindiscrimination_maintask,2023.2.3,60.01860576972041,2026-02-05 10h41.13.037258 -0500,
0,0,0,0,,,,,0,0,0,0,,,,,3,0,3,0,707.5126628000289,,,,,,,,,,,,,1,active,,,,,,,,,,,,,,,,,,707.4966476000845,712.4961867993698,712.4961933996528,712.5126842996106,720.4961615996435,720.4961615996435,723.4628440998495,723.4961556000635,723.4961556000635,723.4796470999718,4.21,4.59,421,459,8,1.2,0.75,pic-present,1,n,0.44848449993878603,None,,,,,sub-071,43.8,41.6,44.68,COM3,2026-02-05_10h40.40.774,2024_RDpaindiscrimination_maintask,2023.2.3,60.01860576972041,2026-02-05 10h41.13.037258 -0500,
0,0,0,0,,,,,1,0,1,0,0,0,0,0,,,,,725.562882100232,,,,,,723.4801377998665,725.5464426996186,,,,,,2,active,43.8,742.5467218002304,744.5319003993645,75.49999999999999,1.964,,,,,725.546736500226,730.5463851001114,730.5463915998116,730.5629463996738,742.5797669999301,742.5467139994726,,,,,,,,,,,,,,,,,,,,,,,,,,,,,sub-071,43.8,41.6,44.68,COM3,2026-02-05_10h40.40.774,2024_RDpaindiscrimination_maintask,2023.2.3,60.01860576972041,2026-02-05 10h41.13.037258 -0500,
0,0,0,0,,,,,1,0,1,0,1,0,1,0,,,,,744.5464886995032,,,,,,,,,,,,,3,inactive,43.8,761.5302197001874,763.565019399859,64.50000000000001,2.014,,,,,744.5326923001558,749.5299750994891,749.5299808997661,749.5464731995016,761.5633563995361,761.5302129993215,,,,,,,,,,,,,,,,,,,,,,,,,,,,,sub-071,43.8,41.6,44.68,COM3,2026-02-05_10h40.40.774,2024_RDpaindiscrimination_maintask,2023.2.3,60.01860576972041,2026-02-05 10h41.13.037258 -0500,
0,0,0,0,,,,,1,0,1,0,,,,,0,0,0,0,765.0133673995733,,,,,,,,,,,,,0,inactive,,,,,,,,,,,,,,,,763.5655323993415,764.9969429001212,764.997268400155,769.9968470996246,769.9968534996733,770.0133852995932,777.9968926999718,777.9968926999718,780.9635271998122,780.9968577995896,780.9968577995896,780.9803561000153,3.84,4.96,384,496,8,1.2,0.75,pic-absent,0,m,0.48390480037778616,None,,,,,sub-071,43.8,41.6,44.68,COM3,2026-02-05_10h40.40.774,2024_RDpaindiscrimination_maintask,2023.2.3,60.01860576972041,2026-02-05 10h41.13.037258 -0500,
0,0,0,0,,,,,1,0,1,0,,,,,1,0,1,0,780.9968577995896,,,,,,,,,,,,,1,active,,,,,,,,,,,,,,,,,,780.9808804001659,785.9803806999698,785.9803877994418,785.996921800077,793.9803483998403,793.9803483998403,796.9470569994301,796.980391100049,796.980391100049,796.9639015002176,3.62,5.18,362,518,8,1.2,0.75,pic-present,1,n,0.39243789948523045,None,,,,,sub-071,43.8,41.6,44.68,COM3,2026-02-05_10h40.40.774,2024_RDpaindiscrimination_maintask,2023.2.3,60.01860576972041,2026-02-05 10h41.13.037258 -0500,
0,0,0,0,,,,,1,0,1,0,,,,,2,0,2,0,796.980391100049,,,,,,,,,,,,,2,active,,,,,,,,,,,,,,,,,,796.9643733995035,801.9639627998695,801.9639697000384,801.9804518995807,809.9638164993376,809.9638164993376,812.9305887995288,812.9639237001538,812.9639237001538,812.9474059995264,3.89,4.91,389,491,8,1.2,0.75,pic-present,1,n,0.46450989972800016,None,,,,,sub-071,43.8,41.6,44.68,COM3,2026-02-05_10h40.40.774,2024_RDpaindiscrimination_maintask,2023.2.3,60.01860576972041,2026-02-05 10h41.13.037258 -0500,
0,0,0,0,,,,,1,0,1,0,,,,,3,0,3,0,812.9639237001538,,,,,,,,,,,,,3,inactive,,,,,,,,,,,,,,,,,,812.947876399383,817.9473911002278,817.9473987994716,817.963922499679,825.9474118994549,825.9474118994549,828.9140665000305,828.9474905999377,828.9474905999377,828.9309502001852,4.36,4.44,436,444,8,1.2,0.75,pic-absent,0,m,0.45338490046560764,None,,,,,sub-071,43.8,41.6,44.68,COM3,2026-02-05_10h40.40.774,2024_RDpaindiscrimination_maintask,2023.2.3,60.01860576972041,2026-02-05 10h41.13.037258 -0500,
0,0,0,0,,,,,2,0,2,0,0,0,0,0,,,,,830.2474638996646,,,,,,828.9315133001655,830.231072999537,,,,,,0,inactive,43.8,847.2312957998365,851.1998546998948,22.00000000000007,3.947,,,,,830.2313559995964,835.2309905001894,835.2309970995411,835.2475637998432,847.2643761998042,847.231286900118,,,,,,,,,,,,,,,,,,,,,,,,,,,,,sub-071,43.8,41.6,44.68,COM3,2026-02-05_10h40.40.774,2024_RDpaindiscrimination_maintask,2023.2.3,60.01860576972041,2026-02-05 10h41.13.037258 -0500,
0,0,0,0,,,,,2,0,2,0,1,0,1,0,,,,,851.214423599653,,,,,,,,,,,,,1,active,43.8,868.1982951993123,871.1161853000522,46.999999999999915,2.898,,,,,851.2006279993802,856.1978286998346,856.1978347999975,856.2143648993224,868.2313158996403,868.1982876993716,,,,,,,,,,,,,,,,,,,,,,,,,,,,,sub-071,43.8,41.6,44.68,COM3,2026-02-05_10h40.40.774,2024_RDpaindiscrimination_maintask,2023.2.3,60.01860576972041,2026-02-05 10h41.13.037258 -0500,
0,0,0,0,,,,,2,0,2,0,,,,,0,0,0,0,872.7812344999984,,,,,,,,,,,,,2,active,,,,,,,,,,,,,,,,871.1167403999716,872.7647943999618,872.7651017997414,877.7647975999862,877.7648045001552,877.7812917996198,885.764844099991,885.764844099991,888.7314590001479,888.7648016000167,888.7648016000167,888.7482442995533,4.57,4.23,457,423,8,1.2,0.75,pic-present,0,m,0.49615880008786917,None,,,,,sub-071,43.8,41.6,44.68,COM3,2026-02-05_10h40.40.774,2024_RDpaindiscrimination_maintask,2023.2.3,60.01860576972041,2026-02-05 10h41.13.037258 -0500,
0,0,0,0,,,,,2,0,2,0,,,,,1,0,1,0,888.7648016000167,,,,,,,,,,,,,3,inactive,,,,,,,,,,,,,,,,,,888.7487984998152,893.7483271993697,893.7483337000012,893.7648195000365,901.7483609998599,901.7483609998599,904.715130600147,904.7484088996425,904.7484088996425,904.7318935999647,4.58,4.22,458,422,8,1.2,0.75,pic-present,1,n,0.5324790999293327,None,,,,,sub-071,43.8,41.6,44.68,COM3,2026-02-05_10h40.40.774,2024_RDpaindiscrimination_maintask,2023.2.3,60.01860576972041,2026-02-05 10h41.13.037258 -0500,
0,0,0,0,,,,,2,0,2,0,,,,,2,0,2,0,904.7484088996425,,,,,,,,,,,,,0,inactive,,,,,,,,,,,,,,,,,,904.7323468001559,909.7319665001705,909.7319735996425,909.7484047999606,917.7319602994248,917.7319602994248,920.6985168997198,920.7318477993831,920.7318477993831,920.7153592994437,4.5,4.3,450,430,8,1.2,0.75,pic-absent,0,m,1.1726935002952814,None,,,,,sub-071,43.8,41.6,44.68,COM3,2026-02-05_10h40.40.774,2024_RDpaindiscrimination_maintask,2023.2.3,60.01860576972041,2026-02-05 10h41.13.037258 -0500,
0,0,0,0,,,,,2,0,2,0,,,,,3,0,3,0,920.7318477993831,,,,,,,,,,,,,1,active,,,,,,,,,,,,,,,,,,920.7158357994631,925.7153947995976,925.7154011996463,925.7319105993956,933.715449700132,933.715449700132,936.6820653993636,936.715429100208,936.715429100208,936.6988825993612,4.3,4.5,430,450,8,1.2,0.75,pic-absent,0,m,0.7777033997699618,None,,,,,sub-071,43.8,41.6,44.68,COM3,2026-02-05_10h40.40.774,2024_RDpaindiscrimination_maintask,2023.2.3,60.01860576972041,2026-02-05 10h41.13.037258 -0500,
0,0,0,0,,,,,3,0,3,0,0,0,0,0,,,,,938.3821026999503,,,,,,936.699370299466,938.365667199716,,,,,,2,active,43.8,955.3657623995095,959.0013402001932,48.500000000000114,3.616,,,,,938.3659692993388,943.365613299422,943.3656198000535,943.3821492996067,,955.3657548995689,,,,,,,,,,,,,,,,,,,,,,,,,,,,,sub-071,43.8,41.6,44.68,COM3,2026-02-05_10h40.40.774,2024_RDpaindiscrimination_maintask,2023.2.3,60.01860576972041,2026-02-05 10h41.13.037258 -0500,
0,0,0,0,,,,,3,0,3,0,1,0,1,0,,,,,959.0157491993159,,,,,,,,,,,,,3,inactive,43.8,975.999611299485,978.9353160001338,42.000000000000135,2.915,,,,,959.0020963996649,963.9992220001295,963.9992280993611,964.0157612999901,976.032529800199,975.9996040994301,,,,,,,,,,,,,,,,,,,,,,,,,,,,,sub-071,43.8,41.6,44.68,COM3,2026-02-05_10h40.40.774,2024_RDpaindiscrimination_maintask,2023.2.3,60.01860576972041,2026-02-05 10h41.13.037258 -0500,
0,0,0,0,,,,,3,0,3,0,,,,,0,0,0,0,980.4992170995101,,,,,,,,,,,,,0,inactive,,,,,,,,,,,,,,,,978.9358374997973,980.482847799547,980.4831687994301,985.4828194994479,985.4828252997249,985.4993425002322,993.4827870996669,993.4827870996669,996.4495866997167,996.4828515993431,996.4828515993431,996.4663475994021,3.4,5.4,340,540,8,1.2,0.75,pic-present,0,m,0.6500273002311587,None,,,,,sub-071,43.8,41.6,44.68,COM3,2026-02-05_10h40.40.774,2024_RDpaindiscrimination_maintask,2023.2.3,60.01860576972041,2026-02-05 10h41.13.037258 -0500,
0,0,0,0,,,,,3,0,3,0,,,,,1,0,1,0,996.4828515993431,,,,,,,,,,,,,1,inactive,,,,,,,,,,,,,,,,,,996.4669025000185,1001.4663629001006,1001.4663698999211,1001.4828825993463,1009.466306399554,1009.466306399554,1012.4329711999744,1012.4663431998342,1012.4663431998342,1012.4498375002295,4.0,4.8,400,480,8,1.2,0.75,pic-absent,0,m,0.8983811000362039,None,,,,,sub-071,43.8,41.6,44.68,COM3,2026-02-05_10h40.40.774,2024_RDpaindiscrimination_maintask,2023.2.3,60.01860576972041,2026-02-05 10h41.13.037258 -0500,
0,0,0,0,,,,,3,0,3,0,,,,,2,0,2,0,1012.4663431998342,,,,,,,,,,,,,2,active,,,,,,,,,,,,,,,,,,1012.4503456000239,1017.4498656997457,1017.4498723996803,1017.466405400075,1025.4497751994058,1025.4497751994058,1028.416498299688,1028.4498371994123,1028.4498371994123,1028.4333864999935,4.47,4.33,447,433,8,1.2,0.75,pic-absent,0,m,1.1036592004820704,None,,,,,sub-071,43.8,41.6,44.68,COM3,2026-02-05_10h40.40.774,2024_RDpaindiscrimination_maintask,2023.2.3,60.01860576972041,2026-02-05 10h41.13.037258 -0500,
0,0,0,0,,,,,3,0,3,0,,,,,3,0,3,0,1028.4498371994123,,,,,,,,,,,,,3,inactive,,,,,,,,,,,,,,,,,,1028.433852499351,1033.433396499604,1033.4334036996588,1033.4499042993411,1041.4333745995536,1041.4333745995536,1044.4000565996394,1044.4334327001125,1044.4334327001125,1044.4169181995094,4.1,4.7,409,470,8,1.2,0.75,pic-present,1,n,0.46316409949213266,None,,,,,sub-071,43.8,41.6,44.68,COM3,2026-02-05_10h40.40.774,2024_RDpaindiscrimination_maintask,2023.2.3,60.01860576972041,2026-02-05 10h41.13.037258 -0500,
1,0,1,0,0,0,0,0,,,,,,,,,,,,,1075.9170901002362,,,,1063.6506177997217,1075.333992799744,1075.3340005995706,1075.9006316000596,1075.900922799483,1080.9006122993305,1080.9006174001843,1080.9171936996281,1092.90068389941,0,inactive,43.8,1092.900919799693,1096.0359405996278,53.49999999999996,3.111,,,,,,,,,,,,,,,,,,,,,,,,,,,,,,,,,,,1044.4174114996567,1063.6504878997803,,,sub-071,43.8,41.6,44.68,COM3,2026-02-05_10h40.40.774,2024_RDpaindiscrimination_maintask,2023.2.3,60.01860576972041,2026-02-05 10h41.13.037258 -0500,
1,0,1,0,1,0,1,0,,,,,,,,,,,,,1096.050729099661,,,,,,,,1096.0368360001594,1101.0342728001997,1101.0342782996595,1101.0506998999044,1113.0345538994297,1,inactive,43.8,1113.034690800123,1116.3032873999327,44.99999999999992,3.248,1113.067623499781,,,,,,,,,,,,,,,,,,,,,,,,,,,,,,,,,,,,,,sub-071,43.8,41.6,44.68,COM3,2026-02-05_10h40.40.774,2024_RDpaindiscrimination_maintask,2023.2.3,60.01860576972041,2026-02-05 10h41.13.037258 -0500,
1,0,1,0,2,0,2,0,,,,,,,,,,,,,1116.3176793996245,,,,,,,,1116.3040363993496,1121.3011031001806,1121.3011090001091,1121.3175583994016,1133.301514099352,2,active,41.6,1133.3016571998596,1136.1192843001336,53.99999999999996,2.796,1133.334528199397,,,,,,,,,,,,,,,,,,,,,,,,,,,,,,,,,,,,,,sub-071,43.8,41.6,44.68,COM3,2026-02-05_10h40.40.774,2024_RDpaindiscrimination_maintask,2023.2.3,60.01860576972041,2026-02-05 10h41.13.037258 -0500,
1,0,1,0,3,0,3,0,,,,,,,,,,,,,1136.1345691001043,,,,,,,,1136.120015299879,1141.1180919995531,1141.1180973993614,1141.1345621999353,1153.1184890996665,3,inactive,43.8,1153.1186287999153,1155.187665999867,60.0,2.049,1153.1514366995543,,,,,,,,,,,,,,,,,,,,,,,,,,,,,,,,,,,,,,sub-071,43.8,41.6,44.68,COM3,2026-02-05_10h40.40.774,2024_RDpaindiscrimination_maintask,2023.2.3,60.01860576972041,2026-02-05 10h41.13.037258 -0500,
1,0,1,0,4,0,4,0,,,,,,,,,,,,,1155.2013662997633,,,,,,,,1155.1884150002152,1160.1849859999493,1160.1849908996373,1160.2014517998323,1172.1853257995099,0,inactive,43.8,1172.1854722993448,1175.0374373998493,14.000000000000101,2.832,1172.2183269001544,,,,,,,,,,,,,,,,,,,,,,,,,,,,,,,,,,,,,,sub-071,43.8,41.6,44.68,COM3,2026-02-05_10h40.40.774,2024_RDpaindiscrimination_maintask,2023.2.3,60.01860576972041,2026-02-05 10h41.13.037258 -0500,
1,0,1,0,5,0,5,0,,,,,,,,,,,,,1175.0516965994611,,,,,,,,1175.0382214002311,1180.0351872993633,1180.035193500109,1180.0516911000013,1192.0356124993414,1,active,41.6,1192.0357658993453,1194.3881884999573,39.99999999999993,2.331,1192.068574800156,,,,,,,,,,,,,,,,,,,,,,,,,,,,,,,,,,,,,,sub-071,43.8,41.6,44.68,COM3,2026-02-05_10h40.40.774,2024_RDpaindiscrimination_maintask,2023.2.3,60.01860576972041,2026-02-05 10h41.13.037258 -0500,
1,0,1,0,6,0,6,0,,,,,,,,,,,,,1194.401921399869,,,,,,,,1194.3889793995768,1199.3854158995673,1199.3854213999584,1199.4019590001553,1211.3858177997172,2,inactive,43.8,1211.385955799371,1213.2703222995624,57.49999999999997,1.863,1211.4187856996432,,,,,,,,,,,,,,,,,,,,,,,,,,,,,,,,,,,,,,sub-071,43.8,41.6,44.68,COM3,2026-02-05_10h40.40.774,2024_RDpaindiscrimination_maintask,2023.2.3,60.01860576972041,2026-02-05 10h41.13.037258 -0500,
1,0,1,0,7,0,7,0,,,,,,,,,,,,,1213.2854797001928,,,,,,,,1213.2710777996108,1218.2690562997013,1218.2690628999844,1218.2855292996392,1230.2693134993315,3,inactive,43.8,1230.2694514999166,1232.504219699651,65.00000000000001,2.214,1230.3022964997217,,,,,,,,,,,,,,,,,,,,,,,,,,,,,,,,,,,,,,sub-071,43.8,41.6,44.68,COM3,2026-02-05_10h40.40.774,2024_RDpaindiscrimination_maintask,2023.2.3,60.01860576972041,2026-02-05 10h41.13.037258 -0500,
1,0,1,0,8,0,8,0,,,,,,,,,,,,,1232.51908059977,,,,,,,,1232.504995699972,1237.502579299733,1237.5025851996616,1237.5190647998825,1249.5029544001445,0,active,41.6,1249.503096099943,1253.4047996997833,31.000000000000174,3.881,1249.5359501000494,,,,,,,,,,,,,,,,,,,,,,,,,,,,,,,,,,,,,,sub-071,43.8,41.6,44.68,COM3,2026-02-05_10h40.40.774,2024_RDpaindiscrimination_maintask,2023.2.3,60.01860576972041,2026-02-05 10h41.13.037258 -0500,
1,0,1,0,9,0,9,0,,,,,,,,,,,,,1253.4193316996098,,,,,,,,1253.4055650997907,1258.4028782993555,1258.4028842998669,1258.4194222996011,1270.403209099546,1,active,41.6,1270.4033460998908,1272.9724477995187,36.49999999999998,2.548,1270.4361788993701,,,,,,,,,,,,,,,,,,,,,,,,,,,,,,,,,,,,,,sub-071,43.8,41.6,44.68,COM3,2026-02-05_10h40.40.774,2024_RDpaindiscrimination_maintask,2023.2.3,60.01860576972041,2026-02-05 10h41.13.037258 -0500,
1,0,1,0,10,0,10,0,,,,,,,,,,,,,1272.9863328998908,,,,,,,,1272.9732229998335,1277.9697862993926,1277.9697923995554,1277.9863062994555,1289.970185299404,2,inactive,43.8,1289.9703243002295,1292.3546463996172,66.49999999999997,2.364,1290.0031897993758,,,,,,,,,,,,,,,,,,,,,,,,,,,,,,,,,,,,,,sub-071,43.8,41.6,44.68,COM3,2026-02-05_10h40.40.774,2024_RDpaindiscrimination_maintask,2023.2.3,60.01860576972041,2026-02-05 10h41.13.037258 -0500,
1,0,1,0,11,0,11,0,,,,,,,,,,,,,1292.369865199551,,,,,,,,1292.3548884997144,1297.3533506998792,1297.3533565001562,1297.3698742995039,1309.3536550002173,3,active,41.6,1309.3537935996428,1311.9045858001336,37.000000000000014,2.53,1309.3866147994995,,,,,,,,,,,,,,,,,,,,,,,,,,,,,,,,,,,,,,sub-071,43.8,41.6,44.68,COM3,2026-02-05_10h40.40.774,2024_RDpaindiscrimination_maintask,2023.2.3,60.01860576972041,2026-02-05 10h41.13.037258 -0500,
1,0,1,0,12,0,12,0,,,,,,,,,,,,,1311.920108200051,,,,,,,,1311.9053553994745,1316.9036627998576,1316.9036684995517,1316.9201130000874,1328.9042004002258,0,active,41.6,1328.90433940012,1330.9879744993523,5.4999999999999964,2.064,1328.936870300211,,,,,,,,,,,,,,,,,,,,,,,,,,,,,,,,,,,,,,sub-071,43.8,41.6,44.68,COM3,2026-02-05_10h40.40.774,2024_RDpaindiscrimination_maintask,2023.2.3,60.01860576972041,2026-02-05 10h41.13.037258 -0500,
1,0,1,0,13,0,13,0,,,,,,,,,,,,,1331.003532299772,,,,,,,,1330.9889719001949,1335.9870213000104,1335.9870266998187,1336.0035463999957,1347.9874526998028,1,inactive,43.8,1347.9875916000456,1350.5382508998737,68.00000000000004,2.53,1348.020466499962,,,,,,,,,,,,,,,,,,,,,,,,,,,,,,,,,,,,,,sub-071,43.8,41.6,44.68,COM3,2026-02-05_10h40.40.774,2024_RDpaindiscrimination_maintask,2023.2.3,60.01860576972041,2026-02-05 10h41.13.037258 -0500,
1,0,1,0,14,0,14,0,,,,,,,,,,,,,1350.5537351993844,,,,,,,,1350.538997599855,1355.5373631995171,1355.5373713998124,1355.5538847995922,1367.5377275999635,2,active,41.6,1367.5378716997802,1370.3550124997273,55.49999999999998,2.797,1367.570692899637,,,,,,,,,,,,,,,,,,,,,,,,,,,,,,,,,,,,,,sub-071,43.8,41.6,44.68,COM3,2026-02-05_10h40.40.774,2024_RDpaindiscrimination_maintask,2023.2.3,60.01860576972041,2026-02-05 10h41.13.037258 -0500,
1,0,1,0,15,0,15,0,,,,,,,,,,,,,1370.3707154998556,,,,,,,,1370.355291100219,1375.3542304998264,1375.3542363001034,1375.3707917993888,1387.3546562995762,3,active,41.6,1387.3547927998006,1391.122365899384,24.5000000000002,3.748,1387.3875623000786,,,,,,,,,,,,,,,,,,,,,,,,,,,,,,,,,,,,,,sub-071,43.8,41.6,44.68,COM3,2026-02-05_10h40.40.774,2024_RDpaindiscrimination_maintask,2023.2.3,60.01860576972041,2026-02-05 10h41.13.037258 -0500,
1,0,1,0,,,,,0,0,0,0,0,0,0,0,,,,,1395.7209940999746,,,,,,1395.288211199455,1395.704503200017,,,,,,0,active,43.8,1412.7047390993685,1415.623464600183,41.00000000000014,2.898,,1391.1229037996382,1391.137597099878,1395.2878815000877,1395.7047640001401,1400.704522099346,1400.7045281995088,1400.721042400226,,1412.704730999656,,,,,,,,,,,,,,,,,,,,,,,,,,,,,sub-071,43.8,41.6,44.68,COM3,2026-02-05_10h40.40.774,2024_RDpaindiscrimination_maintask,2023.2.3,60.01860576972041,2026-02-05 10h41.13.037258 -0500,
1,0,1,0,,,,,0,0,0,0,1,0,1,0,,,,,1415.638007500209,,,,,,,,,,,,,1,inactive,43.8,1432.62184339948,1434.6560680000111,66.49999999999997,2.014,,,,,1415.6241878997535,1420.6215260997415,1420.6215322995558,1420.6380353001878,1432.6548605998978,1432.6218365998939,,,,,,,,,,,,,,,,,,,,,,,,,,,,,sub-071,43.8,41.6,44.68,COM3,2026-02-05_10h40.40.774,2024_RDpaindiscrimination_maintask,2023.2.3,60.01860576972041,2026-02-05 10h41.13.037258 -0500,
1,0,1,0,,,,,0,0,0,0,,,,,0,0,0,0,1436.3214969998226,,,,,,,,,,,,,2,inactive,,,,,,,,,,,,,,,,1434.6566019998863,1436.305107199587,1436.3054110994563,1441.3050138996914,1441.3050199002028,1441.3215205995366,1449.305087399669,1449.305087399669,1452.2716923002154,1452.3050179993734,1452.3050179993734,1452.2885031998158,3.79,5.01,379,501,8,1.2,0.75,pic-absent,1,n,0.4953407999128103,None,,,,,sub-071,43.8,41.6,44.68,COM3,2026-02-05_10h40.40.774,2024_RDpaindiscrimination_maintask,2023.2.3,60.01860576972041,2026-02-05 10h41.13.037258 -0500,
1,0,1,0,,,,,0,0,0,0,,,,,1,0,1,0,1452.3050179993734,,,,,,,,,,,,,3,active,,,,,,,,,,,,,,,,,,1452.2890608999878,1457.2885715002194,1457.2885778993368,1457.3050843002275,1465.2885967995971,1465.2885967995971,1468.255216599442,1468.2885492993519,1468.2885492993519,1468.2720421999693,4.69,4.11,469,411,8,1.2,0.75,pic-present,1,n,0.5239121001213789,None,,,,,sub-071,43.8,41.6,44.68,COM3,2026-02-05_10h40.40.774,2024_RDpaindiscrimination_maintask,2023.2.3,60.01860576972041,2026-02-05 10h41.13.037258 -0500,
1,0,1,0,,,,,0,0,0,0,,,,,2,0,2,0,1468.2885492993519,,,,,,,,,,,,,0,inactive,,,,,,,,,,,,,,,,,,1468.2724963994697,1473.2721921997145,1473.272198899649,1473.2886987999082,1481.2721251994371,1481.2721251994371,1484.2387317996472,1484.2720459001139,1484.2720459001139,1484.2555514993146,4.41,4.39,441,438,8,1.2,0.75,pic-absent,0,m,0.6003059996291995,None,,,,,sub-071,43.8,41.6,44.68,COM3,2026-02-05_10h40.40.774,2024_RDpaindiscrimination_maintask,2023.2.3,60.01860576972041,2026-02-05 10h41.13.037258 -0500,
1,0,1,0,,,,,0,0,0,0,,,,,3,0,3,0,1484.2720459001139,,,,,,,,,,,,,1,active,,,,,,,,,,,,,,,,,,1484.2559968996793,1489.2556362999603,1489.2556422995403,1489.2721403995529,1497.2556539997458,1497.2556539997458,1500.2223538002,1500.2557098995894,1500.2557098995894,1500.239193099551,3.5,5.3,350,530,8,1.2,0.75,pic-present,1,n,0.5131363002583385,None,,,,,sub-071,43.8,41.6,44.68,COM3,2026-02-05_10h40.40.774,2024_RDpaindiscrimination_maintask,2023.2.3,60.01860576972041,2026-02-05 10h41.13.037258 -0500,
1,0,1,0,,,,,1,0,1,0,0,0,0,0,,,,,1501.238951999694,,,,,,1500.2397408001125,1501.2225238000974,,,,,,2,inactive,43.8,1518.2226032000035,1520.657939599827,64.49999999999991,2.414,,,,,1501.222826199606,1506.2224779995158,1506.2224856000394,1506.23900999967,,1518.22259559948,,,,,,,,,,,,,,,,,,,,,,,,,,,,,sub-071,43.8,41.6,44.68,COM3,2026-02-05_10h40.40.774,2024_RDpaindiscrimination_maintask,2023.2.3,60.01860576972041,2026-02-05 10h41.13.037258 -0500,
1,0,1,0,,,,,1,0,1,0,1,0,1,0,,,,,1520.6726180994883,,,,,,,,,,,,,3,active,43.8,1537.6564310994,1540.2905803993344,37.499999999999936,2.614,,,,,1520.6583150001243,1525.6560856997967,1525.6560915000737,1525.6725856000558,1537.6894853999838,1537.6564245000482,,,,,,,,,,,,,,,,,,,,,,,,,,,,,sub-071,43.8,41.6,44.68,COM3,2026-02-05_10h40.40.774,2024_RDpaindiscrimination_maintask,2023.2.3,60.01860576972041,2026-02-05 10h41.13.037258 -0500,
1,0,1,0,,,,,1,0,1,0,,,,,0,0,0,0,1541.9227454001084,,,,,,,,,,,,,0,active,,,,,,,,,,,,,,,,1540.291090699844,1541.9063122998923,1541.9066130993888,1546.9063387000933,1546.906344499439,1546.9228801997378,1554.9064034996554,1554.9064034996554,1557.872940399684,1557.9062753999606,1557.9062753999606,1557.889795199968,3.36,5.44,336,544,8,1.2,0.75,pic-absent,0,m,0.48241919931024313,None,,,,,sub-071,43.8,41.6,44.68,COM3,2026-02-05_10h40.40.774,2024_RDpaindiscrimination_maintask,2023.2.3,60.01860576972041,2026-02-05 10h41.13.037258 -0500,
1,0,1,0,,,,,1,0,1,0,,,,,1,0,1,0,1557.9062753999606,,,,,,,,,,,,,1,inactive,,,,,,,,,,,,,,,,,,1557.8903179997578,1562.8899007001892,1562.8899074001238,1562.9063531998545,1570.8898387001827,1570.8898387001827,1573.8565409993753,1573.8898523999378,1573.8898523999378,1573.8732757000253,3.89,4.91,389,491,8,1.2,0.75,pic-present,1,n,0.4364387998357415,None,,,,,sub-071,43.8,41.6,44.68,COM3,2026-02-05_10h40.40.774,2024_RDpaindiscrimination_maintask,2023.2.3,60.01860576972041,2026-02-05 10h41.13.037258 -0500,
1,0,1,0,,,,,1,0,1,0,,,,,2,0,2,0,1573.8898523999378,,,,,,,,,,,,,2,active,,,,,,,,,,,,,,,,,,1573.873751799576,1578.8733377996832,1578.8733454002067,1578.8900194996968,1586.87336449977,1586.87336449977,1589.8400686001405,1589.873338200152,1589.873338200152,1589.8568861996755,3.44,5.36,344,536,8,1.2,0.75,pic-present,1,n,0.3758493000641465,None,,,,,sub-071,43.8,41.6,44.68,COM3,2026-02-05_10h40.40.774,2024_RDpaindiscrimination_maintask,2023.2.3,60.01860576972041,2026-02-05 10h41.13.037258 -0500,
1,0,1,0,,,,,1,0,1,0,,,,,3,0,3,0,1589.873338200152,,,,,,,,,,,,,3,active,,,,,,,,,,,,,,,,,,1589.8573535000905,1594.8570008995011,1594.8570067994297,1594.8734673997387,1602.8568188995123,1602.8568188995123,1605.8236043993384,1605.8569292994216,1605.8569292994216,1605.8403897993267,4.02,4.78,401,478,8,1.2,0.75,pic-absent,0,m,1.1605596002191305,None,,,,,sub-071,43.8,41.6,44.68,COM3,2026-02-05_10h40.40.774,2024_RDpaindiscrimination_maintask,2023.2.3,60.01860576972041,2026-02-05 10h41.13.037258 -0500,
1,0,1,0,,,,,2,0,2,0,0,0,0,0,,,,,1607.3402133993804,,,,,,1605.8408642997965,1607.323778799735,,,,,,0,inactive,43.8,1624.324009699747,1626.8097362993285,33.49999999999996,2.465,,,,,1607.3240670999512,1612.3237964995205,1612.3238033996895,1612.3402709001675,,1624.3240024000406,,,,,,,,,,,,,,,,,,,,,,,,,,,,,sub-071,43.8,41.6,44.68,COM3,2026-02-05_10h40.40.774,2024_RDpaindiscrimination_maintask,2023.2.3,60.01860576972041,2026-02-05 10h41.13.037258 -0500,
1,0,1,0,,,,,2,0,2,0,1,0,1,0,,,,,1626.8238578997552,,,,,,,,,,,,,1,active,43.8,1643.8077520998195,1646.092487799935,45.500000000000014,2.264,,,,,1626.8105042995885,1631.807392399758,1631.8073990000412,1631.8238509995863,1643.840768800117,1643.8077448997647,,,,,,,,,,,,,,,,,,,,,,,,,,,,,sub-071,43.8,41.6,44.68,COM3,2026-02-05_10h40.40.774,2024_RDpaindiscrimination_maintask,2023.2.3,60.01860576972041,2026-02-05 10h41.13.037258 -0500,
1,0,1,0,,,,,2,0,2,0,,,,,0,0,0,0,1647.6407049000263,,,,,,,,,,,,,2,inactive,,,,,,,,,,,,,,,,1646.09298199974,1647.6242490001023,1647.6245604995638,1652.6242622993886,1652.6242685001343,1652.6408139001578,1660.6243060994893,1660.6243060994893,1663.5909016998485,1663.6242380999029,1663.6242380999029,1663.607752699405,3.33,5.47,333,547,8,1.2,0.75,pic-present,1,n,0.6484500002115965,None,,,,,sub-071,43.8,41.6,44.68,COM3,2026-02-05_10h40.40.774,2024_RDpaindiscrimination_maintask,2023.2.3,60.01860576972041,2026-02-05 10h41.13.037258 -0500,
1,0,1,0,,,,,2,0,2,0,,,,,1,0,1,0,1663.6242380999029,,,,,,,,,,,,,3,inactive,,,,,,,,,,,,,,,,,,1663.608330000192,1668.6078856000677,1668.6078925002366,1668.6244350001216,1676.6077255997807,1676.6077255997807,1679.574429399334,1679.6077629998326,1679.6077629998326,1679.5913722999394,3.26,5.54,326,554,8,1.2,0.75,pic-absent,1,n,0.42946460004895926,None,,,,,sub-071,43.8,41.6,44.68,COM3,2026-02-05_10h40.40.774,2024_RDpaindiscrimination_maintask,2023.2.3,60.01860576972041,2026-02-05 10h41.13.037258 -0500,
1,0,1,0,,,,,2,0,2,0,,,,,2,0,2,0,1679.6077629998326,,,,,,,,,,,,,0,active,,,,,,,,,,,,,,,,,,1679.5918702995405,1684.5914150001481,1684.5914217997342,1684.607926200144,1692.59136739932,1692.59136739932,1695.5580096999183,1695.5912830000743,1695.5912830000743,1695.5747692994773,4.61,4.19,461,419,8,1.2,0.75,pic-absent,0,m,0.5533958999440074,None,,,,,sub-071,43.8,41.6,44.68,COM3,2026-02-05_10h40.40.774,2024_RDpaindiscrimination_maintask,2023.2.3,60.01860576972041,2026-02-05 10h41.13.037258 -0500,
1,0,1,0,,,,,2,0,2,0,,,,,3,0,3,0,1695.5912830000743,,,,,,,,,,,,,1,inactive,,,,,,,,,,,,,,,,,,1695.575241100043,1700.5749811995775,1700.5749877998605,1700.5914602996781,1708.5748442998156,1708.5748442998156,1711.5415220996365,1711.5749097997323,1711.5749097997323,1711.5583482999355,4.55,4.25,455,425,8,1.2,0.75,pic-present,1,n,0.5581069001927972,None,,,,,sub-071,43.8,41.6,44.68,COM3,2026-02-05_10h40.40.774,2024_RDpaindiscrimination_maintask,2023.2.3,60.01860576972041,2026-02-05 10h41.13.037258 -0500,
1,0,1,0,,,,,3,0,3,0,0,0,0,0,,,,,1713.0415418995544,,,,,,1711.558824500069,1713.0251107001677,,,,,,2,active,43.8,1730.0252757994458,1732.2601681994274,71.4999999999999,2.214,,,,,1713.0254320995882,1718.0251385001466,1718.0251460000873,1718.0416195997968,,1730.025268400088,,,,,,,,,,,,,,,,,,,,,,,,,,,,,sub-071,43.8,41.6,44.68,COM3,2026-02-05_10h40.40.774,2024_RDpaindiscrimination_maintask,2023.2.3,60.01860576972041,2026-02-05 10h41.13.037258 -0500,
1,0,1,0,,,,,3,0,3,0,1,0,1,0,,,,,1732.2752089994028,,,,,,,,,,,,,3,inactive,43.8,1749.259243699722,1751.743662999943,58.50000000000004,2.464,,,,,1732.2608893997967,1737.2587166000158,1737.25872229971,1737.2752296999097,1749.2920646993443,1749.2592364000157,,,,,,,,,,,,,,,,,,,,,,,,,,,,,sub-071,43.8,41.6,44.68,COM3,2026-02-05_10h40.40.774,2024_RDpaindiscrimination_maintask,2023.2.3,60.01860576972041,2026-02-05 10h41.13.037258 -0500,
1,0,1,0,,,,,3,0,3,0,,,,,0,0,0,0,1753.0753827998415,,,,,,,,,,,,,0,active,,,,,,,,,,,,,,,,1751.7442026995122,1753.0589976999909,1753.05930109974,1758.0589256994426,1758.058931400068,1758.0754781998694,1766.0589339993894,1766.0589339993894,1769.0256290994585,1769.0588980996981,1769.0588980996981,1769.0423876997083,3.48,5.32,348,532,8,1.2,0.75,pic-present,0,m,0.5345726003870368,None,,,,,sub-071,43.8,41.6,44.68,COM3,2026-02-05_10h40.40.774,2024_RDpaindiscrimination_maintask,2023.2.3,60.01860576972041,2026-02-05 10h41.13.037258 -0500,
1,0,1,0,,,,,3,0,3,0,,,,,1,0,1,0,1769.0588980996981,,,,,,,,,,,,,1,active,,,,,,,,,,,,,,,,,,1769.0429528001696,1774.0425428999588,1774.0425509996712,1774.058983899653,1782.0424368996173,1782.0424368996173,1785.0090910000727,1785.0424298001453,1785.0424298001453,1785.0259668994695,4.44,4.36,444,436,8,1.2,0.75,pic-absent,1,n,0.47158099990338087,None,,,,,sub-071,43.8,41.6,44.68,COM3,2026-02-05_10h40.40.774,2024_RDpaindiscrimination_maintask,2023.2.3,60.01860576972041,2026-02-05 10h41.13.037258 -0500,
1,0,1,0,,,,,3,0,3,0,,,,,2,0,2,0,1785.0424298001453,,,,,,,,,,,,,2,inactive,,,,,,,,,,,,,,,,,,1785.0264769000933,1790.0259836995974,1790.0259926998988,1790.0424371995032,1798.0259828995913,1798.0259828995913,1800.992614899762,1801.0259825997055,1801.0259825997055,1801.0095878997818,4.03,4.77,403,476,8,1.2,0.75,pic-present,1,n,0.37920220009982586,None,,,,,sub-071,43.8,41.6,44.68,COM3,2026-02-05_10h40.40.774,2024_RDpaindiscrimination_maintask,2023.2.3,60.01860576972041,2026-02-05 10h41.13.037258 -0500,
1,0,1,0,,,,,3,0,3,0,,,,,3,0,3,0,1801.0259825997055,,,,,,,,,,,,,3,inactive,,,,,,,,,,,,,,,,,,1801.010106800124,1806.0095595996827,1806.0095659997314,1806.0260899001732,1814.0095398994163,1814.0095398994163,1816.9762351997197,1817.0095258997753,1817.0095258997753,1816.9930660994723,4.3,4.5,430,450,8,1.2,0.75,pic-absent,0,m,0.6272136000916362,None,,,,,sub-071,43.8,41.6,44.68,COM3,2026-02-05_10h40.40.774,2024_RDpaindiscrimination_maintask,2023.2.3,60.01860576972041,2026-02-05 10h41.13.037258 -0500,
,,,,,,,,,,,,,,,,,,,,,,,,,,,,,,,,,,,,,,,,,,,,,,,,,,,,,,,,,,,,,,,,,,,,,,,,,,1816.9935141997412,1819.1931919995695,1819.1932138996199,1829.1931718997657,,,,,,,,,,,
