trials.thisRepN,trials.thisTrialN,trials.thisN,trials.thisIndex,loop_test.thisRepN,loop_test.thisTrialN,loop_test.thisN,loop_test.thisIndex,loop_eval_discri.thisRepN,loop_eval_discri.thisTrialN,loop_eval_discri.thisN,loop_eval_discri.thisIndex,loop_eval.thisRepN,loop_eval.thisTrialN,loop_eval.thisN,loop_eval.thisIndex,loop_discri.thisRepN,loop_discri.thisTrialN,loop_discri.thisN,loop_discri.thisIndex,thisRow.t,notes,Set_up.started,Set_up.stopped,electrode_check.started,electrode_check.stopped,instructions_eval.started,instructions_eval.stopped,pause_5_test.started,pause_5_test.stopped,Phase_Test.started,thermode_locali.started,Phase_Test.stopped,loca_thermode,condition,temp_trial_sent,eval_douleur.started,eval_douleur.stopped,ratingScale.response,ratingScale.rt,thermode_locali.stopped,Fin_test.started,text.started,Fin_test.stopped,pause_5_EVA.started,pause_5_EVA.stopped,tâche_EVA.started,thermode_locali_EVA.started,thermode_locali_EVA.stopped,tâche_EVA.stopped,instructions_discrim.started,instructions_discrim.stopped,pause_5_pic.started,pause_5_pic.stopped,tâche_PIC.started,thermode_locali_pic.started,percu_or.started,responser.started,thermode_locali_pic.stopped,percu_or.stopped,responser.stopped,tâche_PIC.stopped,dur_plateau1,dur_plateau2,dur_plateau1_sent,dur_plateau2_sent,start_plateau_2_resp,dur_pic,dur_rise,pic_presence,pic_response,discrimin_resp.keys,discrimin_resp.rt,discrimin_resp.duration,break_entre_bloc.started,break_entre_bloc.stopped,merci.started,merci.stopped,participant,temp_flat,temp_active,temp_pic_set,com_thermode,date,expName,psychopyVersion,frameRate,expStart,
0,0,0,0,0,0,0,0,,,,,,,,,,,,,20.982868299935944,,0.016047999961301684,17.06648599996697,17.066817799932323,18.033053299994208,18.033060199930333,20.949747300008312,20.950026899925433,25.9663053000113,25.966310999938287,25.985325099900365,37.96638539992273,0,active,44.3,37.96661150001455,44.119393099914305,0.0,6.128,,,,,,,,,,,,,,,,,,,,,,,,,,,,,,,,,,,,,,,sub-053,45.6,44.3,46.5,COM3,2025-06-02_08h46.16.736,2024_RDpaindiscrimination_maintask,2023.2.3,59.956459608567435,2025-06-02 08h46.43.324773 -0400,
0,0,0,0,1,0,1,0,,,,,,,,,,,,,44.13320699997712,,,,,,,,44.120262400014326,49.11664799996652,49.116654100012966,49.13318130001426,61.11700949992519,1,active,44.3,61.11715029994957,66.9516530999681,0.0,5.815,61.150004599941894,,,,,,,,,,,,,,,,,,,,,,,,,,,,,,,,,,,,,,sub-053,45.6,44.3,46.5,COM3,2025-06-02_08h46.16.736,2024_RDpaindiscrimination_maintask,2023.2.3,59.956459608567435,2025-06-02 08h46.43.324773 -0400,
0,0,0,0,2,0,2,0,,,,,,,,,,,,,66.96668409998529,,,,,,,,66.95240449998528,71.95017490000464,71.95018029992934,71.96670559991617,83.95046059996821,2,inactive,45.6,83.9505992999766,87.63538959994912,60.00000000000007,3.664,83.98349359992426,,,,,,,,,,,,,,,,,,,,,,,,,,,,,,,,,,,,,,sub-053,45.6,44.3,46.5,COM3,2025-06-02_08h46.16.736,2024_RDpaindiscrimination_maintask,2023.2.3,59.956459608567435,2025-06-02 08h46.43.324773 -0400,
0,0,0,0,3,0,3,0,,,,,,,,,,,,,87.65031799999997,,,,,,,,87.63617700000759,92.63374590000603,92.6337513999315,92.6502601999091,104.63400719990022,3,inactive,45.6,104.63414589990862,108.33572849992197,60.99999999999986,3.679,104.66704470000695,,,,,,,,,,,,,,,,,,,,,,,,,,,,,,,,,,,,,,sub-053,45.6,44.3,46.5,COM3,2025-06-02_08h46.16.736,2024_RDpaindiscrimination_maintask,2023.2.3,59.956459608567435,2025-06-02 08h46.43.324773 -0400,
0,0,0,0,4,0,4,0,,,,,,,,,,,,,108.35049479990266,,,,,,,,108.33654069993645,113.33397429995239,113.33398060000036,113.35049929993693,125.33424729993567,0,active,44.3,125.3343797000125,129.8035648999503,0.0,4.449,125.36727349995635,,,,,,,,,,,,,,,,,,,,,,,,,,,,,,,,,,,,,,sub-053,45.6,44.3,46.5,COM3,2025-06-02_08h46.16.736,2024_RDpaindiscrimination_maintask,2023.2.3,59.956459608567435,2025-06-02 08h46.43.324773 -0400,
0,0,0,0,5,0,5,0,,,,,,,,,,,,,129.81732149992604,,,,,,,,129.80434589996003,134.80089899990708,134.8009051999543,134.81738219992258,146.80128719995264,1,active,44.3,146.8014204999199,151.61962149990723,0.0,4.797,146.83428899990395,,,,,,,,,,,,,,,,,,,,,,,,,,,,,,,,,,,,,,sub-053,45.6,44.3,46.5,COM3,2025-06-02_08h46.16.736,2024_RDpaindiscrimination_maintask,2023.2.3,59.956459608567435,2025-06-02 08h46.43.324773 -0400,
0,0,0,0,6,0,6,0,,,,,,,,,,,,,151.63425999996252,,,,,,,,151.6204041999299,156.617786699906,156.61779259995092,156.6343166999286,168.6181242999155,2,inactive,45.6,168.61826569994446,173.92056679993402,44.49999999999992,5.282,168.65120889991522,,,,,,,,,,,,,,,,,,,,,,,,,,,,,,,,,,,,,,sub-053,45.6,44.3,46.5,COM3,2025-06-02_08h46.16.736,2024_RDpaindiscrimination_maintask,2023.2.3,59.956459608567435,2025-06-02 08h46.43.324773 -0400,
0,0,0,0,7,0,7,0,,,,,,,,,,,,,173.93460289994255,,,,,,,,173.92136359994765,178.9181321999058,178.91813799994998,178.93465409998316,190.91844979999587,3,active,44.3,190.91858429997228,195.75298939994536,0.0,4.814,190.95144259999506,,,,,,,,,,,,,,,,,,,,,,,,,,,,,,,,,,,,,,sub-053,45.6,44.3,46.5,COM3,2025-06-02_08h46.16.736,2024_RDpaindiscrimination_maintask,2023.2.3,59.956459608567435,2025-06-02 08h46.43.324773 -0400,
0,0,0,0,8,0,8,0,,,,,,,,,,,,,195.76818129990716,,,,,,,,195.75406860001385,200.75171360000968,200.7517194999382,200.7682394000003,212.75201609998476,0,inactive,45.6,212.75215710001066,216.8369684999343,14.500000000000101,4.065,212.7850252999924,,,,,,,,,,,,,,,,,,,,,,,,,,,,,,,,,,,,,,sub-053,45.6,44.3,46.5,COM3,2025-06-02_08h46.16.736,2024_RDpaindiscrimination_maintask,2023.2.3,59.956459608567435,2025-06-02 08h46.43.324773 -0400,
0,0,0,0,9,0,9,0,,,,,,,,,,,,,216.85169929999392,,,,,,,,216.837749099941,221.8352380999131,221.835243599955,221.8518088000128,233.83556009992026,1,inactive,45.6,233.83570950001013,236.9541514000157,47.50000000000008,3.099,233.86856599990278,,,,,,,,,,,,,,,,,,,,,,,,,,,,,,,,,,,,,,sub-053,45.6,44.3,46.5,COM3,2025-06-02_08h46.16.736,2024_RDpaindiscrimination_maintask,2023.2.3,59.956459608567435,2025-06-02 08h46.43.324773 -0400,
0,0,0,0,10,0,10,0,,,,,,,,,,,,,236.96865289995912,,,,,,,,236.95494520000648,241.95216889993753,241.9521746999817,241.9686857999768,253.95244339993224,2,active,44.3,253.95257979992311,258.4876291999826,14.000000000000066,4.515,253.98552280000877,,,,,,,,,,,,,,,,,,,,,,,,,,,,,,,,,,,,,,sub-053,45.6,44.3,46.5,COM3,2025-06-02_08h46.16.736,2024_RDpaindiscrimination_maintask,2023.2.3,59.956459608567435,2025-06-02 08h46.43.324773 -0400,
0,0,0,0,11,0,11,0,,,,,,,,,,,,,258.50213119992986,,,,,,,,258.48840889998246,263.4857583999401,263.485764299985,263.50229269999545,275.48603949998505,3,active,44.3,275.486172099947,279.4212351999013,0.0,3.866,275.56911029992625,,,,,,,,,,,,,,,,,,,,,,,,,,,,,,,,,,,,,,sub-053,45.6,44.3,46.5,COM3,2025-06-02_08h46.16.736,2024_RDpaindiscrimination_maintask,2023.2.3,59.956459608567435,2025-06-02 08h46.43.324773 -0400,
0,0,0,0,12,0,12,0,,,,,,,,,,,,,279.4358138999669,,,,,,,,279.42197549995035,284.41935479990207,284.419360699947,284.43585799995344,296.4196462999098,0,inactive,45.6,296.4197814000072,300.4889070999343,44.50000000000006,4.048,296.4526665000012,,,,,,,,,,,,,,,,,,,,,,,,,,,,,,,,,,,,,,sub-053,45.6,44.3,46.5,COM3,2025-06-02_08h46.16.736,2024_RDpaindiscrimination_maintask,2023.2.3,59.956459608567435,2025-06-02 08h46.43.324773 -0400,
0,0,0,0,13,0,13,0,,,,,,,,,,,,,300.5027413999196,,,,,,,,300.4896786999889,305.48612899996806,305.486134900013,305.50267069996335,317.48657840001397,1,inactive,45.6,317.4867246999638,319.42233249999117,56.500000000000014,1.915,317.5195829999866,,,,,,,,,,,,,,,,,,,,,,,,,,,,,,,,,,,,,,sub-053,45.6,44.3,46.5,COM3,2025-06-02_08h46.16.736,2024_RDpaindiscrimination_maintask,2023.2.3,59.956459608567435,2025-06-02 08h46.43.324773 -0400,
0,0,0,0,14,0,14,0,,,,,,,,,,,,,319.43627059995197,,,,,,,,319.42312970000785,324.41984639992006,324.4198521999642,324.43633820000105,336.4201137999771,2,active,44.3,336.42025059997104,342.57214129995555,6.0000000000000675,6.132,336.4531490999507,,,,,,,,,,,,,,,,,,,,,,,,,,,,,,,,,,,,,,sub-053,45.6,44.3,46.5,COM3,2025-06-02_08h46.16.736,2024_RDpaindiscrimination_maintask,2023.2.3,59.956459608567435,2025-06-02 08h46.43.324773 -0400,
0,0,0,0,15,0,15,0,,,,,,,,,,,,,342.5865529999137,,,,,,,,342.5729542999761,347.5699955999153,347.57000139995944,347.58648900000844,359.5704059000127,3,inactive,45.6,359.5705455999123,362.9892646999797,27.000000000000117,3.398,359.6034260999877,,,,,,,,,,,,,,,,,,,,,,,,,,,,,,,,,,,,,,sub-053,45.6,44.3,46.5,COM3,2025-06-02_08h46.16.736,2024_RDpaindiscrimination_maintask,2023.2.3,59.956459608567435,2025-06-02 08h46.43.324773 -0400,
0,0,0,0,,,,,0,0,0,0,0,0,0,0,,,,,423.02073749992996,,,,,,413.871217399952,423.0043348999461,,,,,,0,inactive,45.6,440.00459719996434,443.9396300999215,39.999999999999964,3.914,,362.98979519994464,363.00334779999685,413.87088659999426,423.0046204999089,428.00428359990474,428.0042903999565,428.0208354999777,440.03760629997123,440.0045896999072,,,,,,,,,,,,,,,,,,,,,,,,,,,,,sub-053,45.6,44.3,46.5,COM3,2025-06-02_08h46.16.736,2024_RDpaindiscrimination_maintask,2023.2.3,59.956459608567435,2025-06-02 08h46.43.324773 -0400,
0,0,0,0,,,,,0,0,0,0,1,0,1,0,,,,,443.9543580999598,,,,,,,,,,,,,1,active,45.6,460.93823639990296,464.4062784999842,26.500000000000014,3.448,,,,,443.94034199998714,448.93784989998676,448.9378556999145,448.9543882999569,460.97119479998946,460.9382271999493,,,,,,,,,,,,,,,,,,,,,,,,,,,,,sub-053,45.6,44.3,46.5,COM3,2025-06-02_08h46.16.736,2024_RDpaindiscrimination_maintask,2023.2.3,59.956459608567435,2025-06-02 08h46.43.324773 -0400,
0,0,0,0,,,,,0,0,0,0,,,,,0,0,0,0,474.0213973999489,,,,,,,,,,,,,2,inactive,,,,,,,,,,,,,,,,464.4068232999416,474.00491099990904,474.0052213999443,479.0049110999098,479.00491769996006,479.02146660001017,487.00486959994305,487.00486959994305,489.9715573999565,490.0048952999059,490.0048952999059,489.98838130000513,4.68,4.12,468,412,8,1.2,0.75,pic-absent,0,m,1.2574634000193328,None,,,,,sub-053,45.6,44.3,46.5,COM3,2025-06-02_08h46.16.736,2024_RDpaindiscrimination_maintask,2023.2.3,59.956459608567435,2025-06-02 08h46.43.324773 -0400,
0,0,0,0,,,,,0,0,0,0,,,,,1,0,1,0,490.0048952999059,,,,,,,,,,,,,3,inactive,,,,,,,,,,,,,,,,,,489.9889818999218,494.98841509991325,494.9884226999711,495.0049594999291,502.98840629996266,502.98840629996266,505.95513639994897,505.9884248999879,505.9884248999879,505.97190449992195,3.49,5.31,349,531,8,1.2,0.75,pic-absent,0,m,1.1612649000016972,None,,,,,sub-053,45.6,44.3,46.5,COM3,2025-06-02_08h46.16.736,2024_RDpaindiscrimination_maintask,2023.2.3,59.956459608567435,2025-06-02 08h46.43.324773 -0400,
0,0,0,0,,,,,0,0,0,0,,,,,2,0,2,0,505.9884248999879,,,,,,,,,,,,,0,active,,,,,,,,,,,,,,,,,,505.9723850999726,510.9720008999575,510.97200780001003,510.9885210999055,518.971961400006,518.971961400006,521.9386461999966,521.9720116999233,521.9720116999233,521.9554626999889,3.91,4.89,391,488,8,1.2,0.75,pic-present,0,m,0.9580057000275701,None,,,,,sub-053,45.6,44.3,46.5,COM3,2025-06-02_08h46.16.736,2024_RDpaindiscrimination_maintask,2023.2.3,59.956459608567435,2025-06-02 08h46.43.324773 -0400,
0,0,0,0,,,,,0,0,0,0,,,,,3,0,3,0,521.9720116999233,,,,,,,,,,,,,1,inactive,,,,,,,,,,,,,,,,,,521.9559536000015,526.9555192999542,526.9555263000075,526.9720125999302,534.9554784999928,534.9554784999928,537.9222263999982,537.955505699967,537.955505699967,537.9389926999575,4.71,4.09,471,409,8,1.2,0.75,pic-absent,1,n,1.086630400037393,None,,,,,sub-053,45.6,44.3,46.5,COM3,2025-06-02_08h46.16.736,2024_RDpaindiscrimination_maintask,2023.2.3,59.956459608567435,2025-06-02 08h46.43.324773 -0400,
0,0,0,0,,,,,1,0,1,0,0,0,0,0,,,,,544.4055960999103,,,,,,537.9394741000142,544.3891537999734,,,,,,2,active,45.6,561.3892284999602,565.0578527000034,38.50000000000008,3.588,,,,,544.3894574999576,549.3891256999923,549.3891320999246,549.4056301999371,,561.3892205000157,,,,,,,,,,,,,,,,,,,,,,,,,,,,,sub-053,45.6,44.3,46.5,COM3,2025-06-02_08h46.16.736,2024_RDpaindiscrimination_maintask,2023.2.3,59.956459608567435,2025-06-02 08h46.43.324773 -0400,
0,0,0,0,,,,,1,0,1,0,1,0,1,0,,,,,565.0725788999116,,,,,,,,,,,,,3,inactive,45.6,582.0564606999978,584.8587624999927,28.999999999999968,2.782,,,,,565.058612999972,570.0560186000075,570.0560247999383,570.072551399935,582.089400399942,582.0564541999483,,,,,,,,,,,,,,,,,,,,,,,,,,,,,sub-053,45.6,44.3,46.5,COM3,2025-06-02_08h46.16.736,2024_RDpaindiscrimination_maintask,2023.2.3,59.956459608567435,2025-06-02 08h46.43.324773 -0400,
0,0,0,0,,,,,1,0,1,0,,,,,0,0,0,0,587.056087099947,,,,,,,,,,,,,0,inactive,,,,,,,,,,,,,,,,584.8592840000056,587.0396812999388,587.0399968000129,592.0396439000033,592.0396502999356,592.0561551999999,600.0396161999088,600.0396161999088,603.0063991999486,603.0397126999451,603.0397126999451,603.0232505999738,4.06,4.74,405,474,8,1.2,0.75,pic-present,0,m,0.9555901000276208,None,,,,,sub-053,45.6,44.3,46.5,COM3,2025-06-02_08h46.16.736,2024_RDpaindiscrimination_maintask,2023.2.3,59.956459608567435,2025-06-02 08h46.43.324773 -0400,
0,0,0,0,,,,,1,0,1,0,,,,,1,0,1,0,603.0397126999451,,,,,,,,,,,,,1,active,,,,,,,,,,,,,,,,,,603.0238019999815,608.0231911999872,608.0231975999195,608.0397195999976,616.0231208999176,616.0231208999176,618.9898200999014,619.0232110999059,619.0232110999059,619.0066348999972,3.9,4.9,390,490,8,1.2,0.75,pic-present,0,m,0.7506108999950811,None,,,,,sub-053,45.6,44.3,46.5,COM3,2025-06-02_08h46.16.736,2024_RDpaindiscrimination_maintask,2023.2.3,59.956459608567435,2025-06-02 08h46.43.324773 -0400,
0,0,0,0,,,,,1,0,1,0,,,,,2,0,2,0,619.0232110999059,,,,,,,,,,,,,2,active,,,,,,,,,,,,,,,,,,619.007079300005,624.006756399991,624.0067629999248,624.0232416999061,632.0066781999776,632.0066781999776,634.9733755999478,635.0067718999926,635.0067718999926,634.990183499991,4.09,4.71,409,471,8,1.2,0.75,pic-absent,0,m,0.8395818000426516,None,,,,,sub-053,45.6,44.3,46.5,COM3,2025-06-02_08h46.16.736,2024_RDpaindiscrimination_maintask,2023.2.3,59.956459608567435,2025-06-02 08h46.43.324773 -0400,
0,0,0,0,,,,,1,0,1,0,,,,,3,0,3,0,635.0067718999926,,,,,,,,,,,,,3,inactive,,,,,,,,,,,,,,,,,,634.9907273999415,639.9902719999664,639.990278699901,640.0067802999401,647.9901772999438,647.9901772999438,650.9568848999916,650.9902707999572,650.9902707999572,650.973725699936,3.48,5.32,348,532,8,1.2,0.75,pic-present,1,n,0.4997527999803424,None,,,,,sub-053,45.6,44.3,46.5,COM3,2025-06-02_08h46.16.736,2024_RDpaindiscrimination_maintask,2023.2.3,59.956459608567435,2025-06-02 08h46.43.324773 -0400,
0,0,0,0,,,,,2,0,2,0,0,0,0,0,,,,,653.0402422999032,,,,,,650.9743432999821,653.0237937999191,,,,,,0,active,45.6,670.0238245999208,674.5773201999255,3.0000000000000226,4.533,,,,,653.024069899926,658.0237930999137,658.0237994999625,658.0403651999077,,670.0238173999824,,,,,,,,,,,,,,,,,,,,,,,,,,,,,sub-053,45.6,44.3,46.5,COM3,2025-06-02_08h46.16.736,2024_RDpaindiscrimination_maintask,2023.2.3,59.956459608567435,2025-06-02 08h46.43.324773 -0400,
0,0,0,0,,,,,2,0,2,0,1,0,1,0,,,,,674.5905927999411,,,,,,,,,,,,,1,inactive,45.6,691.5743658000138,696.1095459999051,6.00000000000013,4.516,,,,,674.5780950000044,679.5740491999313,679.5740558999823,679.5905762999319,691.6073890000116,691.5743588999612,,,,,,,,,,,,,,,,,,,,,,,,,,,,,sub-053,45.6,44.3,46.5,COM3,2025-06-02_08h46.16.736,2024_RDpaindiscrimination_maintask,2023.2.3,59.956459608567435,2025-06-02 08h46.43.324773 -0400,
0,0,0,0,,,,,2,0,2,0,,,,,0,0,0,0,697.9241264999146,,,,,,,,,,,,,2,active,,,,,,,,,,,,,,,,696.1100991999265,697.9077632999979,697.9080891999183,702.9076377999736,702.9076442999067,702.9241693000076,710.9076284999028,710.9076284999028,713.8743730999995,713.9076595999068,713.9076595999068,713.8912515999982,3.36,5.44,336,544,8,1.2,0.75,pic-present,1,n,1.4786536999745294,None,,,,,sub-053,45.6,44.3,46.5,COM3,2025-06-02_08h46.16.736,2024_RDpaindiscrimination_maintask,2023.2.3,59.956459608567435,2025-06-02 08h46.43.324773 -0400,
0,0,0,0,,,,,2,0,2,0,,,,,1,0,1,0,713.9076595999068,,,,,,,,,,,,,3,active,,,,,,,,,,,,,,,,,,713.891804899904,718.8911979999393,718.8912050999934,718.9077294999734,726.8912840000121,726.8912840000121,729.8579853000119,729.8913189999294,729.8913189999294,729.8748140999814,4.62,4.18,462,418,8,1.2,0.75,pic-absent,0,m,1.0393778000725433,None,,,,,sub-053,45.6,44.3,46.5,COM3,2025-06-02_08h46.16.736,2024_RDpaindiscrimination_maintask,2023.2.3,59.956459608567435,2025-06-02 08h46.43.324773 -0400,
0,0,0,0,,,,,2,0,2,0,,,,,2,0,2,0,729.8913189999294,,,,,,,,,,,,,0,inactive,,,,,,,,,,,,,,,,,,729.8753126999363,734.8748501999071,734.8748573999619,734.8913884999929,742.8748187000165,742.8748187000165,745.8415236999281,745.8747957999585,745.8747957999585,745.8583735999418,3.98,4.82,398,482,8,1.2,0.75,pic-absent,0,m,1.2033965999726206,None,,,,,sub-053,45.6,44.3,46.5,COM3,2025-06-02_08h46.16.736,2024_RDpaindiscrimination_maintask,2023.2.3,59.956459608567435,2025-06-02 08h46.43.324773 -0400,
0,0,0,0,,,,,2,0,2,0,,,,,3,0,3,0,745.8747957999585,,,,,,,,,,,,,1,active,,,,,,,,,,,,,,,,,,745.8588698999956,750.8584017999237,750.8584093999816,750.874914499931,758.8583120999392,758.8583120999392,761.8250445999438,761.8583849999122,761.8583849999122,761.8418681999901,4.69,4.11,469,411,8,1.2,0.75,pic-present,0,m,0.9559551000129431,None,,,,,sub-053,45.6,44.3,46.5,COM3,2025-06-02_08h46.16.736,2024_RDpaindiscrimination_maintask,2023.2.3,59.956459608567435,2025-06-02 08h46.43.324773 -0400,
0,0,0,0,,,,,3,0,3,0,0,0,0,0,,,,,763.5749951999169,,,,,,761.8423614999047,763.5585562000051,,,,,,2,inactive,45.6,780.5586591999745,783.4604594999691,33.999999999999986,2.882,,,,,763.5588368999306,768.5586034000153,768.5586098999484,768.5750474999659,,780.5586515999166,,,,,,,,,,,,,,,,,,,,,,,,,,,,,sub-053,45.6,44.3,46.5,COM3,2025-06-02_08h46.16.736,2024_RDpaindiscrimination_maintask,2023.2.3,59.956459608567435,2025-06-02 08h46.43.324773 -0400,
0,0,0,0,,,,,3,0,3,0,1,0,1,0,,,,,783.4753237999976,,,,,,,,,,,,,3,active,45.6,800.4591781999916,802.7286874999991,25.99999999999998,2.249,,,,,783.4612813999411,788.4588574999943,788.4588638999267,788.4753872000147,800.4922062999103,800.459170899936,,,,,,,,,,,,,,,,,,,,,,,,,,,,,sub-053,45.6,44.3,46.5,COM3,2025-06-02_08h46.16.736,2024_RDpaindiscrimination_maintask,2023.2.3,59.956459608567435,2025-06-02 08h46.43.324773 -0400,
0,0,0,0,,,,,3,0,3,0,,,,,0,0,0,0,804.1422061999328,,,,,,,,,,,,,0,active,,,,,,,,,,,,,,,,802.7291923000012,804.1257930999855,804.1260828999802,809.1257223999128,809.1257294999668,809.1423102999106,817.125749400002,817.125749400002,820.0924006999703,820.1257810000097,820.1257810000097,820.1092825999949,3.92,4.88,392,488,8,1.2,0.75,pic-absent,0,m,0.8801177999703214,None,,,,,sub-053,45.6,44.3,46.5,COM3,2025-06-02_08h46.16.736,2024_RDpaindiscrimination_maintask,2023.2.3,59.956459608567435,2025-06-02 08h46.43.324773 -0400,
0,0,0,0,,,,,3,0,3,0,,,,,1,0,1,0,820.1257810000097,,,,,,,,,,,,,1,inactive,,,,,,,,,,,,,,,,,,820.1097985999659,825.1093017999083,825.1093083999585,825.1258349999553,833.1092343999771,833.1092343999771,836.0759789999574,836.1093164999038,836.1093164999038,836.0928002999863,4.6,4.2,459,420,8,1.2,0.75,pic-present,0,m,0.9981875000521541,None,,,,,sub-053,45.6,44.3,46.5,COM3,2025-06-02_08h46.16.736,2024_RDpaindiscrimination_maintask,2023.2.3,59.956459608567435,2025-06-02 08h46.43.324773 -0400,
0,0,0,0,,,,,3,0,3,0,,,,,2,0,2,0,836.1093164999038,,,,,,,,,,,,,2,inactive,,,,,,,,,,,,,,,,,,836.0932476999005,841.0928387999302,841.092846399988,841.1093719999772,849.0927761999192,849.0927761999192,852.059473900008,852.0927652999526,852.0927652999526,852.0763483999763,3.57,5.23,357,523,8,1.2,0.75,pic-present,1,n,0.8062084999401122,None,,,,,sub-053,45.6,44.3,46.5,COM3,2025-06-02_08h46.16.736,2024_RDpaindiscrimination_maintask,2023.2.3,59.956459608567435,2025-06-02 08h46.43.324773 -0400,
0,0,0,0,,,,,3,0,3,0,,,,,3,0,3,0,852.0927652999526,,,,,,,,,,,,,3,active,,,,,,,,,,,,,,,,,,852.0768341999501,857.0762563999742,857.0762628999073,857.0927902999101,865.0763296999503,865.0763296999503,868.0429250999587,868.0762168999063,868.0762168999063,868.0597882999573,3.86,4.94,386,494,8,1.2,0.75,pic-absent,0,m,1.0184410999063402,None,,,,,sub-053,45.6,44.3,46.5,COM3,2025-06-02_08h46.16.736,2024_RDpaindiscrimination_maintask,2023.2.3,59.956459608567435,2025-06-02 08h46.43.324773 -0400,
1,0,1,0,0,0,0,0,,,,,,,,,,,,,917.3269467999926,,,,908.1271294999169,910.0603150000097,910.0603226999519,917.3105955999345,917.3109119000146,922.3104476999724,922.3104537999025,922.3269965999061,934.3108487999998,0,inactive,45.6,934.3110557999462,939.7955552999629,3.0000000000000937,5.461,934.3437568999361,,,,,,,,,,,,,,,,,,,,,,,,,,,,,,,,,,868.0602273999248,908.1270061999094,,,sub-053,45.6,44.3,46.5,COM3,2025-06-02_08h46.16.736,2024_RDpaindiscrimination_maintask,2023.2.3,59.956459608567435,2025-06-02 08h46.43.324773 -0400,
1,0,1,0,1,0,1,0,,,,,,,,,,,,,939.810549799935,,,,,,,,939.7964741999749,944.7941004999448,944.7941067999927,944.81058759999,956.7944479999132,1,active,44.3,956.7945881999331,959.7973798000021,0.0,2.983,956.8274881999241,,,,,,,,,,,,,,,,,,,,,,,,,,,,,,,,,,,,,,sub-053,45.6,44.3,46.5,COM3,2025-06-02_08h46.16.736,2024_RDpaindiscrimination_maintask,2023.2.3,59.956459608567435,2025-06-02 08h46.43.324773 -0400,
1,0,1,0,2,0,2,0,,,,,,,,,,,,,959.8108927999856,,,,,,,,959.7981803999282,964.7943282999331,964.794334199978,964.8108866999391,976.7946968999458,2,inactive,45.6,976.794839899987,978.9633388000075,16.500000000000032,2.147,976.827737399959,,,,,,,,,,,,,,,,,,,,,,,,,,,,,,,,,,,,,,sub-053,45.6,44.3,46.5,COM3,2025-06-02_08h46.16.736,2024_RDpaindiscrimination_maintask,2023.2.3,59.956459608567435,2025-06-02 08h46.43.324773 -0400,
1,0,1,0,3,0,3,0,,,,,,,,,,,,,978.9777916999301,,,,,,,,978.9640836999752,983.9611840000143,983.9611899999436,983.9777405000059,995.9615052000154,3,active,44.3,995.9616531999782,999.4465502999956,0.5000000000001295,3.465,995.9945289999014,,,,,,,,,,,,,,,,,,,,,,,,,,,,,,,,,,,,,,sub-053,45.6,44.3,46.5,COM3,2025-06-02_08h46.16.736,2024_RDpaindiscrimination_maintask,2023.2.3,59.956459608567435,2025-06-02 08h46.43.324773 -0400,
1,0,1,0,4,0,4,0,,,,,,,,,,,,,999.4612428999972,,,,,,,,999.4473078999436,1004.4447692999383,1004.444774899981,1004.4612919999054,1016.4450745999347,0,active,44.3,1016.4452200999949,1021.379919799976,0.5000000000000673,4.914,1016.4781160999555,,,,,,,,,,,,,,,,,,,,,,,,,,,,,,,,,,,,,,sub-053,45.6,44.3,46.5,COM3,2025-06-02_08h46.16.736,2024_RDpaindiscrimination_maintask,2023.2.3,59.956459608567435,2025-06-02 08h46.43.324773 -0400,
1,0,1,0,5,0,5,0,,,,,,,,,,,,,1021.3948087999597,,,,,,,,1021.3807257999433,1026.3784032999538,1026.3784088999964,1026.3949053999968,1038.3786898999242,1,inactive,45.6,1038.378833899973,1042.6806334999856,7.000000000000131,4.281,1038.411744599929,,,,,,,,,,,,,,,,,,,,,,,,,,,,,,,,,,,,,,sub-053,45.6,44.3,46.5,COM3,2025-06-02_08h46.16.736,2024_RDpaindiscrimination_maintask,2023.2.3,59.956459608567435,2025-06-02 08h46.43.324773 -0400,
1,0,1,0,6,0,6,0,,,,,,,,,,,,,1042.6951186999213,,,,,,,,1042.681376799941,1047.678615199984,1047.6786215999164,1047.695139599964,1059.6789987999946,2,active,44.3,1059.6791400999064,1062.7152188000036,7.000000000000024,3.016,1059.7119905999862,,,,,,,,,,,,,,,,,,,,,,,,,,,,,,,,,,,,,,sub-053,45.6,44.3,46.5,COM3,2025-06-02_08h46.16.736,2024_RDpaindiscrimination_maintask,2023.2.3,59.956459608567435,2025-06-02 08h46.43.324773 -0400,
1,0,1,0,7,0,7,0,,,,,,,,,,,,,1062.7289313999936,,,,,,,,1062.715996999992,1067.7122987000039,1067.712304799934,1067.728784399922,1079.7125758999027,3,active,44.3,1079.7127139999066,1082.3317670999095,5.000000000000022,2.599,1079.7456087999744,,,,,,,,,,,,,,,,,,,,,,,,,,,,,,,,,,,,,,sub-053,45.6,44.3,46.5,COM3,2025-06-02_08h46.16.736,2024_RDpaindiscrimination_maintask,2023.2.3,59.956459608567435,2025-06-02 08h46.43.324773 -0400,
1,0,1,0,8,0,8,0,,,,,,,,,,,,,1082.3456920000026,,,,,,,,1082.3325176999206,1087.3292525999714,1087.329258899903,1087.3457926999545,1099.3295395999448,0,inactive,45.6,1099.3296771999449,1102.4817933999002,25.000000000000124,3.131,1099.3625215999782,,,,,,,,,,,,,,,,,,,,,,,,,,,,,,,,,,,,,,sub-053,45.6,44.3,46.5,COM3,2025-06-02_08h46.16.736,2024_RDpaindiscrimination_maintask,2023.2.3,59.956459608567435,2025-06-02 08h46.43.324773 -0400,
1,0,1,0,9,0,9,0,,,,,,,,,,,,,1102.4959010999883,,,,,,,,1102.4825608999236,1107.4794392999029,1107.4794455999509,1107.4959581999574,1119.479719499941,1,active,44.3,1119.4798588999547,1124.0656530999113,3.0000000000001648,4.566,1119.5128287000116,,,,,,,,,,,,,,,,,,,,,,,,,,,,,,,,,,,,,,sub-053,45.6,44.3,46.5,COM3,2025-06-02_08h46.16.736,2024_RDpaindiscrimination_maintask,2023.2.3,59.956459608567435,2025-06-02 08h46.43.324773 -0400,
1,0,1,0,10,0,10,0,,,,,,,,,,,,,1124.0794966999674,,,,,,,,1124.0664543999592,1129.0630534999073,1129.06305909995,1129.079561999999,1141.0634462999878,2,inactive,45.6,1141.063587899902,1144.4324728999054,44.50000000000013,3.349,1141.0963690999197,,,,,,,,,,,,,,,,,,,,,,,,,,,,,,,,,,,,,,sub-053,45.6,44.3,46.5,COM3,2025-06-02_08h46.16.736,2024_RDpaindiscrimination_maintask,2023.2.3,59.956459608567435,2025-06-02 08h46.43.324773 -0400,
1,0,1,0,11,0,11,0,,,,,,,,,,,,,1144.4464577999897,,,,,,,,1144.4332455999684,1149.4299681999255,1149.429973899969,1149.4464875999838,1161.4302571999142,3,inactive,45.6,1161.4303962999256,1163.2158925000113,7.499999999999998,1.677,1161.5466421999736,,,,,,,,,,,,,,,,,,,,,,,,,,,,,,,,,,,,,,sub-053,45.6,44.3,46.5,COM3,2025-06-02_08h46.16.736,2024_RDpaindiscrimination_maintask,2023.2.3,59.956459608567435,2025-06-02 08h46.43.324773 -0400,
1,0,1,0,12,0,12,0,,,,,,,,,,,,,1163.2300470999908,,,,,,,,1163.216670099995,1168.2135296999477,1168.213535399991,1168.2301506999647,1180.213834599941,0,active,44.3,1180.213985899929,1184.1667577999178,3.0000000000001648,3.933,1180.2468578999396,,,,,,,,,,,,,,,,,,,,,,,,,,,,,,,,,,,,,,sub-053,45.6,44.3,46.5,COM3,2025-06-02_08h46.16.736,2024_RDpaindiscrimination_maintask,2023.2.3,59.956459608567435,2025-06-02 08h46.43.324773 -0400,
1,0,1,0,13,0,13,0,,,,,,,,,,,,,1184.1802899999311,,,,,,,,1184.1675647000084,1189.1637902999064,1189.1637960999506,1189.1803139999975,1201.1641172999516,1,inactive,45.6,1201.1642613000004,1204.8489352999022,13.50000000000003,3.665,1201.1971363999182,,,,,,,,,,,,,,,,,,,,,,,,,,,,,,,,,,,,,,sub-053,45.6,44.3,46.5,COM3,2025-06-02_08h46.16.736,2024_RDpaindiscrimination_maintask,2023.2.3,59.956459608567435,2025-06-02 08h46.43.324773 -0400,
1,0,1,0,14,0,14,0,,,,,,,,,,,,,1204.8638940999517,,,,,,,,1204.849695299985,1209.8474062999012,1209.8474121999461,1209.8638347999658,1221.847672999953,2,active,44.3,1221.8478115999606,1225.6834890999598,0.0,3.816,1221.8806834999705,,,,,,,,,,,,,,,,,,,,,,,,,,,,,,,,,,,,,,sub-053,45.6,44.3,46.5,COM3,2025-06-02_08h46.16.736,2024_RDpaindiscrimination_maintask,2023.2.3,59.956459608567435,2025-06-02 08h46.43.324773 -0400,
1,0,1,0,15,0,15,0,,,,,,,,,,,,,1225.6974039999768,,,,,,,,1225.6844651999418,1230.6809360999614,1230.6809415000025,1230.6975105999736,1242.6812544999411,3,inactive,45.6,1242.6813907999313,1246.6853424999863,44.00000000000013,3.984,1242.714286100003,,,,,,,,,,,,,,,,,,,,,,,,,,,,,,,,,,,,,,sub-053,45.6,44.3,46.5,COM3,2025-06-02_08h46.16.736,2024_RDpaindiscrimination_maintask,2023.2.3,59.956459608567435,2025-06-02 08h46.43.324773 -0400,
1,0,1,0,,,,,0,0,0,0,0,0,0,0,,,,,1258.3311491999775,,,,,,1257.2317891999846,1258.3147228999296,,,,,,0,active,45.6,1275.3150792999659,1280.0330233999994,2.0000000000002007,4.697,,1246.6859507999616,1246.6977020999184,1257.23144959996,1258.3150118999183,1263.3146834999789,1263.314689999912,1263.3312089999672,1275.3480274999747,1275.3150710999034,,,,,,,,,,,,,,,,,,,,,,,,,,,,,sub-053,45.6,44.3,46.5,COM3,2025-06-02_08h46.16.736,2024_RDpaindiscrimination_maintask,2023.2.3,59.956459608567435,2025-06-02 08h46.43.324773 -0400,
1,0,1,0,,,,,0,0,0,0,1,0,1,0,,,,,1280.0482031999854,,,,,,,,,,,,,1,inactive,45.6,1297.032063499908,1300.3669580999995,16.00000000000014,3.315,,,,,1280.0337454999099,1285.0317363999784,1285.03174269991,1285.0482698999112,1297.065100000007,1297.032056499971,,,,,,,,,,,,,,,,,,,,,,,,,,,,,sub-053,45.6,44.3,46.5,COM3,2025-06-02_08h46.16.736,2024_RDpaindiscrimination_maintask,2023.2.3,59.956459608567435,2025-06-02 08h46.43.324773 -0400,
1,0,1,0,,,,,0,0,0,0,,,,,0,0,0,0,1302.7985042999499,,,,,,,,,,,,,2,inactive,,,,,,,,,,,,,,,,1300.3674888999667,1302.7820626999019,1302.7823396999156,1307.78199519997,1307.7820015999023,1307.798518699943,1315.7819522999926,1315.7819522999926,1318.7486844999949,1318.7820299000014,1318.7820299000014,1318.765561099979,3.62,5.18,362,518,8,1.2,0.75,pic-absent,0,m,0.780351800029166,None,,,,,sub-053,45.6,44.3,46.5,COM3,2025-06-02_08h46.16.736,2024_RDpaindiscrimination_maintask,2023.2.3,59.956459608567435,2025-06-02 08h46.43.324773 -0400,
1,0,1,0,,,,,0,0,0,0,,,,,1,0,1,0,1318.7820299000014,,,,,,,,,,,,,3,active,,,,,,,,,,,,,,,,,,1318.7661181999138,1323.7655894999625,1323.7655975999078,1323.7820967999287,1331.765529599972,1331.765529599972,1334.732224599924,1334.765562799992,1334.765562799992,1334.7490224000067,4.46,4.34,446,434,8,1.2,0.75,pic-present,1,n,0.9848259999416769,None,,,,,sub-053,45.6,44.3,46.5,COM3,2025-06-02_08h46.16.736,2024_RDpaindiscrimination_maintask,2023.2.3,59.956459608567435,2025-06-02 08h46.43.324773 -0400,
1,0,1,0,,,,,0,0,0,0,,,,,2,0,2,0,1334.765562799992,,,,,,,,,,,,,0,inactive,,,,,,,,,,,,,,,,,,1334.7494779999834,1339.749079399975,1339.749085899908,1339.7656201999635,1347.7489915000042,1347.7489915000042,1350.7157565999078,1350.7491002999013,1350.7491002999013,1350.732618900016,3.73,5.07,373,507,8,1.2,0.75,pic-absent,0,m,0.4266899999929592,None,,,,,sub-053,45.6,44.3,46.5,COM3,2025-06-02_08h46.16.736,2024_RDpaindiscrimination_maintask,2023.2.3,59.956459608567435,2025-06-02 08h46.43.324773 -0400,
1,0,1,0,,,,,0,0,0,0,,,,,3,0,3,0,1350.7491002999013,,,,,,,,,,,,,1,active,,,,,,,,,,,,,,,,,,1350.7330885999836,1355.732511500013,1355.7325182999484,1355.7490267999237,1363.7325349999592,1363.7325349999592,1366.6992555999896,1366.7326339000138,1366.7326339000138,1366.7160920999013,3.53,5.27,353,527,8,1.2,0.75,pic-present,0,m,1.22236829996109,None,,,,,sub-053,45.6,44.3,46.5,COM3,2025-06-02_08h46.16.736,2024_RDpaindiscrimination_maintask,2023.2.3,59.956459608567435,2025-06-02 08h46.43.324773 -0400,
1,0,1,0,,,,,1,0,1,0,0,0,0,0,,,,,1368.565994799952,,,,,,1366.7166130999103,1368.5495974000078,,,,,,2,inactive,45.6,1385.5498629999347,1389.4691347999033,3.5000000000001648,3.899,,,,,1368.5499344000127,1373.5494766999036,1373.5494822999462,1373.5660290999804,1385.582776599913,1385.5498547999887,,,,,,,,,,,,,,,,,,,,,,,,,,,,,sub-053,45.6,44.3,46.5,COM3,2025-06-02_08h46.16.736,2024_RDpaindiscrimination_maintask,2023.2.3,59.956459608567435,2025-06-02 08h46.43.324773 -0400,
1,0,1,0,,,,,1,0,1,0,1,0,1,0,,,,,1389.4828327000141,,,,,,,,,,,,,3,active,45.6,1406.4667794000125,1407.968704400002,30.0,1.482,,,,,1389.469922899967,1394.4663231999148,1394.4663291999605,1394.4828568999656,1406.4997808999615,1406.4667718999553,,,,,,,,,,,,,,,,,,,,,,,,,,,,,sub-053,45.6,44.3,46.5,COM3,2025-06-02_08h46.16.736,2024_RDpaindiscrimination_maintask,2023.2.3,59.956459608567435,2025-06-02 08h46.43.324773 -0400,
1,0,1,0,,,,,1,0,1,0,,,,,0,0,0,0,1409.8163856999017,,,,,,,,,,,,,0,inactive,,,,,,,,,,,,,,,,1407.9692158999387,1409.7999310999876,1409.8002309999429,1414.7999549999367,1414.799960799981,1414.8164840999525,1422.8000073999865,1422.8000073999865,1425.7666752999648,1425.8000367999775,1425.8000367999775,1425.7835333999246,4.51,4.29,451,429,8,1.2,0.75,pic-present,0,m,0.6228987000649795,None,,,,,sub-053,45.6,44.3,46.5,COM3,2025-06-02_08h46.16.736,2024_RDpaindiscrimination_maintask,2023.2.3,59.956459608567435,2025-06-02 08h46.43.324773 -0400,
1,0,1,0,,,,,1,0,1,0,,,,,1,0,1,0,1425.8000367999775,,,,,,,,,,,,,1,active,,,,,,,,,,,,,,,,,,1425.7840339000104,1430.7834780999692,1430.7834852999076,1430.8000172999455,1438.783560999902,1438.783560999902,1441.750249799923,1441.7835671999492,1441.7835671999492,1441.7670565999579,3.53,5.27,353,527,8,1.2,0.75,pic-absent,0,m,0.5351562999421731,None,,,,,sub-053,45.6,44.3,46.5,COM3,2025-06-02_08h46.16.736,2024_RDpaindiscrimination_maintask,2023.2.3,59.956459608567435,2025-06-02 08h46.43.324773 -0400,
1,0,1,0,,,,,1,0,1,0,,,,,2,0,2,0,1441.7835671999492,,,,,,,,,,,,,2,active,,,,,,,,,,,,,,,,,,1441.7675460999599,1446.767019999912,1446.7670265999623,1446.7836009999737,1454.7669786999468,1454.7669786999468,1457.7336898999056,1457.7670667999191,1457.7670667999191,1457.7505093999207,3.38,5.42,338,542,8,1.2,0.75,pic-absent,0,m,0.42830699996557087,None,,,,,sub-053,45.6,44.3,46.5,COM3,2025-06-02_08h46.16.736,2024_RDpaindiscrimination_maintask,2023.2.3,59.956459608567435,2025-06-02 08h46.43.324773 -0400,
1,0,1,0,,,,,1,0,1,0,,,,,3,0,3,0,1457.7670667999191,,,,,,,,,,,,,3,inactive,,,,,,,,,,,,,,,,,,1457.750982999918,1462.750554399914,1462.7505630999804,1462.7670806999085,1470.7506265999982,1470.7506265999982,1473.7172413999215,1473.7505269999383,1473.7505269999383,1473.734006899991,4.29,4.51,429,451,8,1.2,0.75,pic-present,1,n,2.132247000001371,None,,,,,sub-053,45.6,44.3,46.5,COM3,2025-06-02_08h46.16.736,2024_RDpaindiscrimination_maintask,2023.2.3,59.956459608567435,2025-06-02 08h46.43.324773 -0400,
1,0,1,0,,,,,2,0,2,0,0,0,0,0,,,,,1475.4672046999913,,,,,,1473.734475199948,1475.4507410000078,,,,,,0,inactive,45.6,1492.450945999939,1494.752401900012,22.99999999999999,2.28,,,,,1475.4510326999007,1480.4507928999374,1480.4507994999876,1480.4673061999492,,1492.4509382999968,,,,,,,,,,,,,,,,,,,,,,,,,,,,,sub-053,45.6,44.3,46.5,COM3,2025-06-02_08h46.16.736,2024_RDpaindiscrimination_maintask,2023.2.3,59.956459608567435,2025-06-02 08h46.43.324773 -0400,
1,0,1,0,,,,,2,0,2,0,1,0,1,0,,,,,1494.7674486999167,,,,,,,,,,,,,1,active,45.6,1511.75151490001,1515.1031768999528,3.0000000000000226,3.332,,,,,1494.753120600013,1499.751128999982,1499.7511349999113,1499.7676295000128,1511.784455499961,1511.75150699995,,,,,,,,,,,,,,,,,,,,,,,,,,,,,sub-053,45.6,44.3,46.5,COM3,2025-06-02_08h46.16.736,2024_RDpaindiscrimination_maintask,2023.2.3,59.956459608567435,2025-06-02 08h46.43.324773 -0400,
1,0,1,0,,,,,2,0,2,0,,,,,0,0,0,0,1516.71771909995,,,,,,,,,,,,,2,active,,,,,,,,,,,,,,,,1515.1036950999405,1516.7014092999743,1516.701740499935,1521.7013428999344,1521.7013492999831,1521.7178163999924,1529.7013321999693,1529.7013321999693,1532.6679537999444,1532.7012933999067,1532.7012933999067,1532.6848255000077,3.26,5.54,326,554,8,1.2,0.75,pic-absent,0,m,0.9012184999883175,None,,,,,sub-053,45.6,44.3,46.5,COM3,2025-06-02_08h46.16.736,2024_RDpaindiscrimination_maintask,2023.2.3,59.956459608567435,2025-06-02 08h46.43.324773 -0400,
1,0,1,0,,,,,2,0,2,0,,,,,1,0,1,0,1532.7012933999067,,,,,,,,,,,,,3,inactive,,,,,,,,,,,,,,,,,,1532.6853649999248,1537.6848423999036,1537.684849299956,1537.7014079999644,1545.684876699932,1545.684876699932,1548.6514838999137,1548.6848338999553,1548.6848338999553,1548.6682799999835,4.6,4.2,459,420,8,1.2,0.75,pic-present,0,m,0.9425340000307187,None,,,,,sub-053,45.6,44.3,46.5,COM3,2025-06-02_08h46.16.736,2024_RDpaindiscrimination_maintask,2023.2.3,59.956459608567435,2025-06-02 08h46.43.324773 -0400,
1,0,1,0,,,,,2,0,2,0,,,,,2,0,2,0,1548.6848338999553,,,,,,,,,,,,,0,active,,,,,,,,,,,,,,,,,,1548.6687836999772,1553.6683649999322,1553.6683723999886,1553.6849515999202,1561.668286699918,1561.668286699918,1564.634996799985,1564.668324499973,1564.668324499973,1564.6518105999567,3.69,5.11,369,511,8,1.2,0.75,pic-present,0,m,1.3230603999691084,None,,,,,sub-053,45.6,44.3,46.5,COM3,2025-06-02_08h46.16.736,2024_RDpaindiscrimination_maintask,2023.2.3,59.956459608567435,2025-06-02 08h46.43.324773 -0400,
1,0,1,0,,,,,2,0,2,0,,,,,3,0,3,0,1564.668324499973,,,,,,,,,,,,,1,inactive,,,,,,,,,,,,,,,,,,1564.652253499953,1569.651851899922,1569.6518586999737,1569.668394499924,1577.6518517999211,1577.6518517999211,1580.6185246999376,1580.6518531999318,1580.6518531999318,1580.6353510000044,3.78,5.02,378,501,8,1.2,0.75,pic-absent,0,m,0.8042421999853104,None,,,,,sub-053,45.6,44.3,46.5,COM3,2025-06-02_08h46.16.736,2024_RDpaindiscrimination_maintask,2023.2.3,59.956459608567435,2025-06-02 08h46.43.324773 -0400,
1,0,1,0,,,,,3,0,3,0,0,0,0,0,,,,,1581.6518716999562,,,,,,1580.6358095000032,1581.635546399979,,,,,,2,active,45.6,1598.635774299968,1602.9708113999804,0.0,4.315,,,,,1581.6358455999289,1586.6353987999028,1586.6354050999507,1586.6519554000115,1598.6688058999134,1598.6357664999086,,,,,,,,,,,,,,,,,,,,,,,,,,,,,sub-053,45.6,44.3,46.5,COM3,2025-06-02_08h46.16.736,2024_RDpaindiscrimination_maintask,2023.2.3,59.956459608567435,2025-06-02 08h46.43.324773 -0400,
1,0,1,0,,,,,3,0,3,0,1,0,1,0,,,,,1602.9854688999476,,,,,,,,,,,,,3,inactive,45.6,1619.9693322000094,1623.121485899901,3.4999999999999964,3.133,,,,,1602.9716268999036,1607.9690127999056,1607.9690189999528,1607.9855391000165,1620.0023448999273,1619.9693248999538,,,,,,,,,,,,,,,,,,,,,,,,,,,,,sub-053,45.6,44.3,46.5,COM3,2025-06-02_08h46.16.736,2024_RDpaindiscrimination_maintask,2023.2.3,59.956459608567435,2025-06-02 08h46.43.324773 -0400,
1,0,1,0,,,,,3,0,3,0,,,,,0,0,0,0,1624.4857743999455,,,,,,,,,,,,,0,active,,,,,,,,,,,,,,,,1623.1219827999594,1624.469378800015,1624.46967339993,1629.4693198999157,1629.469326099963,1629.4858625999186,1637.4693216999294,1637.4693216999294,1640.4359747999115,1640.4693096999545,1640.4693096999545,1640.4528027999913,3.77,5.03,377,503,8,1.2,0.75,pic-present,0,m,0.5620101999957114,None,,,,,sub-053,45.6,44.3,46.5,COM3,2025-06-02_08h46.16.736,2024_RDpaindiscrimination_maintask,2023.2.3,59.956459608567435,2025-06-02 08h46.43.324773 -0400,
1,0,1,0,,,,,3,0,3,0,,,,,1,0,1,0,1640.4693096999545,,,,,,,,,,,,,1,inactive,,,,,,,,,,,,,,,,,,1640.4533395000035,1645.452840999933,1645.4528473999817,1645.4693639999023,1653.4528488999931,1653.4528488999931,1656.4195590999443,1656.4528614999726,1656.4528614999726,1656.436338200001,4.67,4.13,467,413,8,1.2,0.75,pic-absent,0,m,0.5180803000694141,None,,,,,sub-053,45.6,44.3,46.5,COM3,2025-06-02_08h46.16.736,2024_RDpaindiscrimination_maintask,2023.2.3,59.956459608567435,2025-06-02 08h46.43.324773 -0400,
1,0,1,0,,,,,3,0,3,0,,,,,2,0,2,0,1656.4528614999726,,,,,,,,,,,,,2,inactive,,,,,,,,,,,,,,,,,,1656.4368012999184,1661.4363792999648,1661.4363862999016,1661.4529054999584,1669.4363461999455,1669.4363461999455,1672.403115299996,1672.4363751999335,1672.4363751999335,1672.4198677999666,3.54,5.26,354,526,8,1.2,0.75,pic-present,1,n,0.3987960999365896,None,,,,,sub-053,45.6,44.3,46.5,COM3,2025-06-02_08h46.16.736,2024_RDpaindiscrimination_maintask,2023.2.3,59.956459608567435,2025-06-02 08h46.43.324773 -0400,
1,0,1,0,,,,,3,0,3,0,,,,,3,0,3,0,1672.4363751999335,,,,,,,,,,,,,3,active,,,,,,,,,,,,,,,,,,1672.4203381999396,1677.4199142999714,1677.4199212999083,1677.4364401999628,1685.4199190000072,1685.4199190000072,1688.3865784999216,1688.41995209991,1688.41995209991,1688.4033885999816,4.7,4.1,470,409,8,1.2,0.75,pic-absent,0,m,1.0113814000505954,None,,,,,sub-053,45.6,44.3,46.5,COM3,2025-06-02_08h46.16.736,2024_RDpaindiscrimination_maintask,2023.2.3,59.956459608567435,2025-06-02 08h46.43.324773 -0400,
,,,,,,,,,,,,,,,,,,,,,,,,,,,,,,,,,,,,,,,,,,,,,,,,,,,,,,,,,,,,,,,,,,,,,,,,,,1688.4038323999848,1690.8368932999438,1690.836915199994,1700.8368473999435,,,,,,,,,,,
