series.thisRepN,series.thisTrialN,series.thisN,series.thisIndex,Ramp.thisRepN,Ramp.thisTrialN,Ramp.thisN,Ramp.thisIndex,trials.thisRepN,trials.thisTrialN,trials.thisN,trials.thisIndex,thisRow.t,notes,Welcome.started,Welcome.stopped,instructions2.started,instructions2.stopped,instructions_start_ramp.started,instructions_start_ramp.stopped,confirm_continue.started,key_resp_8.started,confirm_continue.stopped,intensity,wait1_dur,wait.started,wait.stopped,therm_trig.started,therm_trig.stopped,rating_scale.started,rating_scale.stopped,rating,ratingScale.response,ratingScale.rt,press_when_ready.started,text_2.started,key_resp_3.started,press_when_ready.stopped,key_resp_3.keys,key_resp_3.rt,key_resp_3.duration,bloc_terminé.started,bloc_terminé.stopped,compile_ramps.started,compile_ramps.stopped,deuxieme_start.started,deuxieme_start.stopped,press_when_ready2.started,text_9.started,press_when_ready2.stopped,wait_2.started,wait_2.stopped,therm_trig2.started,therm_trig2.stopped,rating_scale2.started,rating_scale2.stopped,keyResp_2.keys,therm_value,ratingScale_2.response,ratingScale_2.rt,thank_you_output_code.started,thank_you_output_code.stopped,participant,com_thermode,nramps,date,expName,psychopyVersion,frameRate,expStart,
0,0,0,0,0,0,0,0,,,,,16.068709099999978,,0.001829599999837228,1.4687803000001622,1.4687874999999622,15.318981400000212,15.333208500000183,16.035599700000148,16.035891800000172,16.068709099999978,17.635652500000106,41,2.2,17.646738200000073,19.835540200000196,19.835547300000144,31.83558290000019,31.835588500000085,37.59203250000019,1.3877787807814457e-16,1.3877787807814457e-16,5.732,37.59264979999989,37.60229190000018,37.60229190000018,40.86928230000012,y,3.2666298000003735,None,,,,,,,,,,,,,,,,,,,,,,sub-072,COM3,3,2026-02-05_14h31.07.099,2024_RDpaindiscrimination_calibration,2023.2.3,60.014247382359464,2026-02-05 15h11.34.115064 -0500,
0,0,0,0,1,0,1,0,,,,,40.88560180000013,,,,,,,,40.86957489999986,40.88560180000013,41.235841100000016,42,2.3,41.23596069999985,43.5357583,43.535765399999946,55.53612329999987,55.53613050000013,59.09022760000016,0.0,0.0,3.533,59.09072520000018,59.1024467000002,59.1024467000002,60.70276240000021,y,1.5905189000000064,None,,,,,,,,,,,,,,,,,,,,,,sub-072,COM3,3,2026-02-05_14h31.07.099,2024_RDpaindiscrimination_calibration,2023.2.3,60.014247382359464,2026-02-05 15h11.34.115064 -0500,
0,0,0,0,2,0,2,0,,,,,60.71903320000001,,,,,,,,60.703004299999975,60.71903320000001,60.90269219999982,43,2.4,60.9027973000002,63.30264450000004,63.30265139999983,75.30299950000017,75.3030063000001,83.92365840000002,5.000000000000067,5.000000000000067,8.6,83.92409439999983,83.93593240000018,83.93593240000018,85.73615840000002,y,1.7848947000002227,None,,,,,,,,,,,,,,,,,,,,,,sub-072,COM3,3,2026-02-05_14h31.07.099,2024_RDpaindiscrimination_calibration,2023.2.3,60.014247382359464,2026-02-05 15h11.34.115064 -0500,
0,0,0,0,3,0,3,0,,,,,85.75263820000009,,,,,,,,85.73636050000005,85.75263820000009,86.0029328999999,44,2.3,86.00305160000016,88.30275340000026,88.30276069999991,100.30281569999988,100.30282119999993,106.30770769999981,13.0000000000001,13.0000000000001,5.985,106.30812280000009,106.31965910000008,106.31965910000008,107.88636429999997,y,1.5530115000001388,None,,,,,,,,,,,,,,,,,,,,,,sub-072,COM3,3,2026-02-05_14h31.07.099,2024_RDpaindiscrimination_calibration,2023.2.3,60.014247382359464,2026-02-05 15h11.34.115064 -0500,
0,0,0,0,4,0,4,0,,,,,107.90280570000004,,,,,,,,107.88657419999981,107.90280570000004,108.11969349999981,45,2.4,108.11980480000011,110.51966799999991,110.519675,122.52003120000018,122.52003800000011,127.2419190999999,43.00000000000013,43.00000000000013,4.702,127.24235929999986,127.2529585000002,127.2529585000002,129.18660320000026,y,1.9317214000002423,None,,,,,,,,,,,,,,,,,,,,,,sub-072,COM3,3,2026-02-05_14h31.07.099,2024_RDpaindiscrimination_calibration,2023.2.3,60.014247382359464,2026-02-05 15h11.34.115064 -0500,
0,0,0,0,5,0,5,0,,,,,129.20302489999995,,,,,,,,129.18683340000007,129.20302489999995,129.48657150000008,46,2.5,129.48667840000007,131.9865205000001,131.98652850000008,143.98687740000014,143.98688330000004,147.74124119999988,44.50000000000002,44.50000000000002,3.734,147.74168670000017,147.7531939999999,147.7531939999999,150.22022860000015,y,2.4516810999998597,None,,,,,,,,,,,,,,,,,,,,,,sub-072,COM3,3,2026-02-05_14h31.07.099,2024_RDpaindiscrimination_calibration,2023.2.3,60.014247382359464,2026-02-05 15h11.34.115064 -0500,
0,0,0,0,6,0,6,0,,,,,150.23656200000005,,,,,,,,150.22044180000012,150.23656200000005,150.47011729999986,47,2.3,150.47022659999993,152.77005259999987,152.77005969999982,164.77008860000024,164.7700937999998,169.42394280000008,57.99999999999987,57.99999999999987,4.632,169.4243738,169.4367725000002,169.4367725000002,171.62021349999986,y,2.172682299999906,None,,,,,,,,,,,,,,,,,,,,,,sub-072,COM3,3,2026-02-05_14h31.07.099,2024_RDpaindiscrimination_calibration,2023.2.3,60.014247382359464,2026-02-05 15h11.34.115064 -0500,
0,0,0,0,7,0,7,0,,,,,171.63664800000015,,,,,,,,171.62042780000002,171.63664800000015,171.92032150000023,48,2.2,171.9204365999999,174.12024120000024,174.12024800000017,186.12027119999993,186.120277,198.70944229999986,97.99999999999997,97.99999999999997,12.569,198.71022420000008,198.72046929999988,198.72046929999988,199.9373086999999,n,1.2007574999997814,None,,,,,,,,,,,,,,,,,,,,,,sub-072,COM3,3,2026-02-05_14h31.07.099,2024_RDpaindiscrimination_calibration,2023.2.3,60.014247382359464,2026-02-05 15h11.34.115064 -0500,
0,0,0,0,,,,,,,,,,,,,,,,,,,,,,,,,,,,,,,,,,,,,,199.93746599999986,203.9372659999999,,,,,,,,,,,,,,,,,,,,sub-072,COM3,3,2026-02-05_14h31.07.099,2024_RDpaindiscrimination_calibration,2023.2.3,60.014247382359464,2026-02-05 15h11.34.115064 -0500,
1,0,1,0,0,0,0,0,,,,,229.10394850000012,,,,,,203.93738200000007,229.08756170000015,229.08787329999996,229.10394850000012,229.5209018999999,41,2.2,229.5210492000001,231.7207767,231.72078360000023,243.72123509999983,243.72124200000007,248.6084052000001,3.0000000000001292,3.0000000000001292,4.867,248.60896779999985,248.62092200000006,248.62092200000006,251.00442740000017,y,2.3677919000001566,None,,,,,,,,,,,,,,,,,,,,,,sub-072,COM3,3,2026-02-05_14h31.07.099,2024_RDpaindiscrimination_calibration,2023.2.3,60.014247382359464,2026-02-05 15h11.34.115064 -0500,
1,0,1,0,1,0,1,0,,,,,251.0208963,,,,,,,,251.00471340000013,251.0208963,251.22111039999982,42,2.2,251.22123220000003,253.42103320000024,253.42104019999988,265.4210622999999,265.42106820000026,270.1089783000002,1.0000000000002005,1.0000000000002005,4.667,270.10946300000023,270.1210741,270.1210741,271.4547286000002,y,1.3318836999997075,None,,,,,,,,,,,,,,,,,,,,,,sub-072,COM3,3,2026-02-05_14h31.07.099,2024_RDpaindiscrimination_calibration,2023.2.3,60.014247382359464,2026-02-05 15h11.34.115064 -0500,
1,0,1,0,2,0,2,0,,,,,271.4710616000002,,,,,,,,271.45493780000015,271.4710616000002,271.6881093000002,43,2.4,271.68823250000014,274.08798690000003,274.0879937999998,286.0882809,286.0882878000002,289.2432285,6.500000000000023,6.500000000000023,3.135,289.2436679000002,289.2545746999999,289.2545746999999,290.58808640000007,y,1.3220099999998638,None,,,,,,,,,,,,,,,,,,,,,,sub-072,COM3,3,2026-02-05_14h31.07.099,2024_RDpaindiscrimination_calibration,2023.2.3,60.014247382359464,2026-02-05 15h11.34.115064 -0500,
1,0,1,0,3,0,3,0,,,,,290.6046212000001,,,,,,,,290.5883210000002,290.6046212000001,290.8714393,44,2.4,290.8715631,293.2714393000001,293.27144709999993,305.27147620000005,305.27148160000024,310.47672850000026,15.500000000000139,15.500000000000139,5.185,310.4771621,310.4882550000002,310.4882550000002,312.0550383,y,1.5564519999998083,None,,,,,,,,,,,,,,,,,,,,,,sub-072,COM3,3,2026-02-05_14h31.07.099,2024_RDpaindiscrimination_calibration,2023.2.3,60.014247382359464,2026-02-05 15h11.34.115064 -0500,
1,0,1,0,4,0,4,0,,,,,312.0715094000002,,,,,,,,312.0552653,312.0715094000002,312.28842459999987,45,2.3,312.2885495999999,314.58833619999996,314.58834320000005,326.5886992999999,326.588706,332.17553180000004,15.500000000000103,15.500000000000103,5.519,332.17596589999994,332.1883708999999,332.1883708999999,333.68870300000026,y,1.4926543999999922,None,,,,,,,,,,,,,,,,,,,,,,sub-072,COM3,3,2026-02-05_14h31.07.099,2024_RDpaindiscrimination_calibration,2023.2.3,60.014247382359464,2026-02-05 15h11.34.115064 -0500,
1,0,1,0,5,0,5,0,,,,,333.70511160000024,,,,,,,,333.68893909999997,333.70511160000024,333.95535629999995,46,2.1,333.9554803000001,336.05524920000016,336.05525609999995,348.0555485,348.05555570000024,352.02621120000003,18.500000000000107,18.500000000000107,3.95,352.0266462999998,352.0385457000002,352.0385457000002,353.4387234999999,y,1.3944627000000764,None,,,,,,,,,,,,,,,,,,,,,,sub-072,COM3,3,2026-02-05_14h31.07.099,2024_RDpaindiscrimination_calibration,2023.2.3,60.014247382359464,2026-02-05 15h11.34.115064 -0500,
1,0,1,0,6,0,6,0,,,,,353.4551259,,,,,,,,353.4389765000001,353.4551259,353.68868220000013,47,2.3,353.6887872000002,355.9886127,355.98861910000005,367.98876040000005,367.98876599999994,374.0266237999999,49.50000000000011,49.50000000000011,6.018,374.02705160000005,374.0388376000001,374.0388376000001,379.47240009999996,y,5.430221200000233,None,,,,,,,,,,,,,,,,,,,,,,sub-072,COM3,3,2026-02-05_14h31.07.099,2024_RDpaindiscrimination_calibration,2023.2.3,60.014247382359464,2026-02-05 15h11.34.115064 -0500,
1,0,1,0,7,0,7,0,,,,,379.48874049999995,,,,,,,,379.4726048000002,379.48874049999995,379.75567309999997,48,2.5,379.7557756000001,382.25556749999987,382.25557500000014,394.2556595000001,394.25566489999983,398.3596934000002,84.99999999999997,84.99999999999997,4.084,398.3605084999999,398.3725144,398.3725144,401.2726756000002,n,2.8959709999999177,None,,,,,,,,,,,,,,,,,,,,,,sub-072,COM3,3,2026-02-05_14h31.07.099,2024_RDpaindiscrimination_calibration,2023.2.3,60.014247382359464,2026-02-05 15h11.34.115064 -0500,
1,0,1,0,,,,,,,,,,,,,,,,,,,,,,,,,,,,,,,,,,,,,,401.2728341000002,405.2724981000001,,,,,,,,,,,,,,,,,,,,sub-072,COM3,3,2026-02-05_14h31.07.099,2024_RDpaindiscrimination_calibration,2023.2.3,60.014247382359464,2026-02-05 15h11.34.115064 -0500,
2,0,2,0,0,0,0,0,,,,,406.52242049999995,,,,,,405.27261720000024,406.5060033999998,406.50633659999994,406.52242049999995,406.85603470000024,41,2.0,406.8561986999998,408.8558495000002,408.8558567,420.8559964000001,420.85600139999997,425.343793,0.0,0.0,4.467,425.3443698000001,425.3560160000002,425.3560160000002,426.18951270000025,y,0.821117299999969,None,,,,,,,,,,,,,,,,,,,,,,sub-072,COM3,3,2026-02-05_14h31.07.099,2024_RDpaindiscrimination_calibration,2023.2.3,60.014247382359464,2026-02-05 15h11.34.115064 -0500,
2,0,2,0,1,0,1,0,,,,,426.2059684999999,,,,,,,,426.1898237999999,426.2059684999999,426.4229144000001,42,2.5,426.4230284999999,428.9228671000001,428.9228745999999,440.92326730000013,440.9232740000002,444.8274916999999,1.5000000000001297,1.5000000000001297,3.884,444.82793279999987,444.8396782,444.8396782,446.4232164,y,1.581216300000051,None,,,,,,,,,,,,,,,,,,,,,,sub-072,COM3,3,2026-02-05_14h31.07.099,2024_RDpaindiscrimination_calibration,2023.2.3,60.014247382359464,2026-02-05 15h11.34.115064 -0500,
2,0,2,0,2,0,2,0,,,,,446.4396101000002,,,,,,,,446.4234385999998,446.4396101000002,446.6398187,43,2.1,446.6399388,448.7397409,448.73974780000026,460.74010880000014,460.74011599999994,464.62870169999997,3.5000000000000937,3.5000000000000937,3.869,464.6291412999999,464.6398245999999,464.6398245999999,465.9400968,y,1.297450800000206,None,,,,,,,,,,,,,,,,,,,,,,sub-072,COM3,3,2026-02-05_14h31.07.099,2024_RDpaindiscrimination_calibration,2023.2.3,60.014247382359464,2026-02-05 15h11.34.115064 -0500,
2,0,2,0,3,0,3,0,,,,,465.9564353999999,,,,,,,,465.94033990000025,465.9564353999999,466.15667870000016,44,2.0,466.1567820999999,468.1566302000001,468.1566372000002,480.1570405000002,480.1570479000002,483.5287850999998,5.499999999999988,5.499999999999988,3.352,483.52922750000016,483.54004209999994,483.54004209999994,485.50696590000007,y,1.9608439000003273,None,,,,,,,,,,,,,,,,,,,,,,sub-072,COM3,3,2026-02-05_14h31.07.099,2024_RDpaindiscrimination_calibration,2023.2.3,60.014247382359464,2026-02-05 15h11.34.115064 -0500,
2,0,2,0,4,0,4,0,,,,,485.52337320000015,,,,,,,,485.50717050000003,485.52337320000015,485.72360119999985,45,2.1,485.72370880000017,487.82353319999993,487.82353980000016,499.82361360000004,499.8236191000001,507.8444949,13.500000000000172,13.500000000000172,8.0,507.84500990000015,507.85694890000013,507.85694890000013,509.27385570000024,y,1.4155876999998327,None,,,,,,,,,,,,,,,,,,,,,,sub-072,COM3,3,2026-02-05_14h31.07.099,2024_RDpaindiscrimination_calibration,2023.2.3,60.014247382359464,2026-02-05 15h11.34.115064 -0500,
2,0,2,0,5,0,5,0,,,,,509.2902942999999,,,,,,,,509.2740772000002,509.2902942999999,509.5405860999999,46,2.3,509.54069770000024,511.8404515000002,511.84045909999986,523.8405016000002,523.8405074000002,530.3451448000001,21.000000000000103,21.000000000000103,6.484,530.3456172000001,530.3572247000002,530.3572247000002,531.5741883000001,y,1.2115632000000005,None,,,,,,,,,,,,,,,,,,,,,,sub-072,COM3,3,2026-02-05_14h31.07.099,2024_RDpaindiscrimination_calibration,2023.2.3,60.014247382359464,2026-02-05 15h11.34.115064 -0500,
2,0,2,0,6,0,6,0,,,,,531.5905444999999,,,,,,,,531.5744175999998,531.5905444999999,531.8240510999999,47,2.1,531.8241714000001,533.9240054000002,533.9240121000003,545.9240721000001,545.9240779000002,552.7782659,39.50000000000014,39.50000000000014,6.834,552.7787981000001,552.7908250999999,552.7908250999999,554.6743532,y,1.8780736999997316,None,,,,,,,,,,,,,,,,,,,,,,sub-072,COM3,3,2026-02-05_14h31.07.099,2024_RDpaindiscrimination_calibration,2023.2.3,60.014247382359464,2026-02-05 15h11.34.115064 -0500,
2,0,2,0,7,0,7,0,,,,,554.6908171,,,,,,,,554.6745737000001,554.6908171,554.9910841000001,48,2.3,554.9911987999999,557.2909081000003,557.2909152000002,569.291001,569.2910067000003,579.3299553000002,90.50000000000014,90.50000000000014,10.019,579.3304511000001,579.3411749000002,579.3411749000002,581.341253,n,1.9837235999998484,None,,,,,,,,,,,,,,,,,,,,,,sub-072,COM3,3,2026-02-05_14h31.07.099,2024_RDpaindiscrimination_calibration,2023.2.3,60.014247382359464,2026-02-05 15h11.34.115064 -0500,
2,0,2,0,,,,,,,,,,,,,,,,,,,,,,,,,,,,,,,,,,,,,,581.3414305000001,585.3412377999998,,,,,,,,,,,,,,,,,,,,sub-072,COM3,3,2026-02-05_14h31.07.099,2024_RDpaindiscrimination_calibration,2023.2.3,60.014247382359464,2026-02-05 15h11.34.115064 -0500,
,,,,,,,,0,0,0,0,655.3585290000001,,,,,,,,,,,,2.0,,,,,,,79.9999999999998,,,,,,,,,,,,585.3412624000002,590.3579029000002,590.3579095,655.3420452,655.3424098999999,655.3585290000001,655.8253814999998,655.8253897999998,657.8254286000001,657.8254370999998,669.8258101000001,669.8258169999999,676.0645003999998,None,48.0,79.9999999999998,6.218,,,sub-072,COM3,3,2026-02-05_14h31.07.099,2024_RDpaindiscrimination_calibration,2023.2.3,60.014247382359464,2026-02-05 15h11.34.115064 -0500,
,,,,,,,,1,0,1,0,676.0755202,,,,,,,,,,,,2.1,,,,,,,39.00000000000014,,,,,,,,,,,,,,,,676.0657881000002,676.0755202,677.1423736000002,677.1423814999998,679.2423014000001,679.2423094000001,691.2423674000001,691.242373,696.4140447,None,44.8,39.00000000000014,5.151,,,sub-072,COM3,3,2026-02-05_14h31.07.099,2024_RDpaindiscrimination_calibration,2023.2.3,60.014247382359464,2026-02-05 15h11.34.115064 -0500,
,,,,,,,,2,0,2,0,696.4424023000001,,,,,,,,,,,,2.4,,,,,,,29.500000000000046,,,,,,,,,,,,,,,,696.4150683000003,696.4424023000001,697.2592513,697.2592589000001,699.6592381,699.6592458999999,711.6596601000001,711.6596681999999,720.4471693,None,43.4,29.500000000000046,8.768,,,sub-072,COM3,3,2026-02-05_14h31.07.099,2024_RDpaindiscrimination_calibration,2023.2.3,60.014247382359464,2026-02-05 15h11.34.115064 -0500,
,,,,,,,,3,0,3,0,720.4594124,,,,,,,,,,,,2.5,,,,,,,29.50000000000007,,,,,,,,,,,,,,,,720.4482127000001,720.4594124,721.7429875000003,721.7429965000001,724.2427536,724.2427610999998,736.2428221,736.2428276,741.7135733999999,None,44.3,29.50000000000007,5.451,,,sub-072,COM3,3,2026-02-05_14h31.07.099,2024_RDpaindiscrimination_calibration,2023.2.3,60.014247382359464,2026-02-05 15h11.34.115064 -0500,
,,,,,,,,4,0,4,0,741.7261917999999,,,,,,,,,,,,2.1,,,,,,,39.00000000000014,,,,,,,,,,,,,,,,741.7146186999998,741.7261917999999,742.9098574999998,742.9098660999998,745.0097437,745.0097507,757.0101991000001,757.0102062000001,762.8972054000001,None,45.7,39.00000000000014,5.867,,,sub-072,COM3,3,2026-02-05_14h31.07.099,2024_RDpaindiscrimination_calibration,2023.2.3,60.014247382359464,2026-02-05 15h11.34.115064 -0500,
,,,,,,,,5,0,5,0,762.9098429000001,,,,,,,,,,,,2.3,,,,,,,6.5000000000000675,,,,,,,,,,,,,,,,762.8982040999999,762.9098429000001,764.2100753,764.2100828000002,766.5099175999999,766.5099258,778.5099687000002,778.5099746999999,783.3987576,None,42.5,6.5000000000000675,4.869,,,sub-072,COM3,3,2026-02-05_14h31.07.099,2024_RDpaindiscrimination_calibration,2023.2.3,60.014247382359464,2026-02-05 15h11.34.115064 -0500,
,,,,,,,,6,0,6,0,783.4099627,,,,,,,,,,,,2.4,,,,,,,72.99999999999984,,,,,,,,,,,,,,,,783.3997413000002,783.4099627,784.4768844999999,784.4768917000001,786.8767837,786.8767911999998,798.8768983999998,798.8769043000002,802.2318068,None,46.6,72.99999999999984,3.335,,,sub-072,COM3,3,2026-02-05_14h31.07.099,2024_RDpaindiscrimination_calibration,2023.2.3,60.014247382359464,2026-02-05 15h11.34.115064 -0500,
,,,,,,,,7,0,7,0,802.2436587000002,,,,,,,,,,,,2.1,,,,,,,70.49999999999983,,,,,,,,,,,,,,,,802.2328465,802.2436587000002,803.3271070000001,803.3271152000002,805.4270637,805.4270713999999,817.4271152000001,817.4271214,821.5486725000001,None,45.2,70.49999999999983,4.101,,,sub-072,COM3,3,2026-02-05_14h31.07.099,2024_RDpaindiscrimination_calibration,2023.2.3,60.014247382359464,2026-02-05 15h11.34.115064 -0500,
,,,,,,,,8,0,8,0,821.5603741999998,,,,,,,,,,,,2.3,,,,,,,83.99999999999984,,,,,,,,,,,,,,,,821.5496705,821.5603741999998,822.7774024999999,822.7774107999999,825.0772886999998,825.0772963,837.0773340999999,837.0773399999998,843.2995138000001,None,47.1,83.99999999999984,6.201,,,sub-072,COM3,3,2026-02-05_14h31.07.099,2024_RDpaindiscrimination_calibration,2023.2.3,60.014247382359464,2026-02-05 15h11.34.115064 -0500,
,,,,,,,,9,0,9,0,843.3108403000001,,,,,,,,,,,,2.4,,,,,,,11.000000000000206,,,,,,,,,,,,,,,,843.3005705,843.3108403000001,844.644256,844.6442651000002,847.0442336000001,847.0442415000002,859.0447414999999,859.0447488,864.5653525000002,None,42.0,11.000000000000206,5.5,,,sub-072,COM3,3,2026-02-05_14h31.07.099,2024_RDpaindiscrimination_calibration,2023.2.3,60.014247382359464,2026-02-05 15h11.34.115064 -0500,
,,,,,,,,10,0,10,0,864.5774993999999,,,,,,,,,,,,2.4,,,,,,,16.500000000000078,,,,,,,,,,,,,,,,864.5663601000001,864.5774993999999,865.7611084999999,865.7611158999998,868.1610494000001,868.1610570000003,880.1611395999998,880.1611465999999,883.9983287999999,None,46.2,16.500000000000078,3.817,,,sub-072,COM3,3,2026-02-05_14h31.07.099,2024_RDpaindiscrimination_calibration,2023.2.3,60.014247382359464,2026-02-05 15h11.34.115064 -0500,
,,,,,,,,11,0,11,0,884.0111624000001,,,,,,,,,,,,2.0,,,,,,,25.000000000000053,,,,,,,,,,,,,,,,883.9992998000002,884.0111624000001,885.4613307,885.4613386000001,887.4612397999999,887.4612476000002,899.4613334999999,899.4613391000003,904.0329075999998,None,43.8,25.000000000000053,4.485,,,sub-072,COM3,3,2026-02-05_14h31.07.099,2024_RDpaindiscrimination_calibration,2023.2.3,60.014247382359464,2026-02-05 15h11.34.115064 -0500,
,,,,,,,,12,0,12,0,904.0447945999999,,,,,,,,,,,,2.0,,,,,,,10.500000000000098,,,,,,,,,,,,,,,,904.0338959000001,904.0447945999999,905.3781872,905.3781951999999,907.3782166000001,907.3782243,919.3786544999998,919.3786614999999,923.8668189999999,None,42.9,10.500000000000098,4.468,,,sub-072,COM3,3,2026-02-05_14h31.07.099,2024_RDpaindiscrimination_calibration,2023.2.3,60.014247382359464,2026-02-05 15h11.34.115064 -0500,
,,,,,,,,13,0,13,0,923.8782704,,,,,,,,,,,,2.3,,,,,,,83.99999999999991,,,,,,,,,,,,,,,,923.8677901000001,923.8782704,925.2285252000001,925.2285327999998,927.5284397999999,927.5284477,939.5288350000001,939.5288418999999,945.0007868000002,None,47.5,83.99999999999991,5.451,,,sub-072,COM3,3,2026-02-05_14h31.07.099,2024_RDpaindiscrimination_calibration,2023.2.3,60.014247382359464,2026-02-05 15h11.34.115064 -0500,
,,,,,,,,,,,,,,,,,,,,,,,,,,,,,,,,,,,,,,,,,,,,,,,,,,,,,,,,,,,,945.0016567000002,950.0118651000003,,,,,,,,,
