trials.thisRepN,trials.thisTrialN,trials.thisN,trials.thisIndex,thisRow.t,notes,trial.started,trial.stopped,wait.started,wait.stopped,triggerrrs.started,thermode_locali_pic.started,percu_or.started,responser.started,thermode_locali_pic.stopped,percu_or.stopped,responser.stopped,triggerrrs.stopped,dur_plateau1,dur_plateau2,dur_plateau1_sent,dur_plateau2_sent,start_plateau_2_resp,start_detect_cue,dur_pic,dur_rise,temp_plateau_sent,loca_thermode,pic_sent,quest_intens,pic_response,discrimin_resp.keys,discrimin_resp.rt,discrimin_resp.duration,Cali_fin.started,text.started,text.stopped,Cali_fin.stopped,mean_6_reversals,pic_a_utiliser,threshold,participant,com_thermode,temp_plateau,date,expName,psychopyVersion,frameRate,expStart,
0,0,0,0,158.9903178999666,,0.00531289994250983,158.97391529998276,158.9742623999482,163.97383999999147,163.9738452999154,163.9942005999619,171.97371869999915,171.97371869999915,174.2071129999822,174.97381360002328,174.97381360002328,174.95729249995202,3.5,5.3,350,530,8,3,1.2,0.75,471,0,479,0.8,1,m,1.5803397001000121,None,,,,,,,,sub-066,COM3,47.1,2025-09-16_13h25.42.055,2024_RDpaindiscrimination_QUEST,2023.2.3,59.9887221460989,2025-09-16 13h25.59.004787 -0400,
1,0,1,0,174.97381360002328,,,,174.9584470000118,179.9573403999675,179.95734600001015,179.9738760999171,187.97389799996745,187.97389799996745,190.1739641999593,190.9739723999519,190.9739723999519,190.9575054999441,3.64,5.16,364,516,8,3,1.2,0.75,471,1,475,0.4,1,m,1.5957458999473602,None,,,,,,,,sub-066,COM3,47.1,2025-09-16_13h25.42.055,2024_RDpaindiscrimination_QUEST,2023.2.3,59.9887221460989,2025-09-16 13h25.59.004787 -0400,
2,0,2,0,190.9739723999519,,,,190.95850820001215,195.9574862999143,195.95749219995923,195.9740257000085,203.95744289993308,203.95744289993308,206.17414179991465,206.95747429993935,206.95747429993935,206.9409813999664,3.96,4.84,396,484,8,3,1.2,0.75,471,2,474,0.3,1,m,1.1510120000457391,None,,,,,,,,sub-066,COM3,47.1,2025-09-16_13h25.42.055,2024_RDpaindiscrimination_QUEST,2023.2.3,59.9887221460989,2025-09-16 13h25.59.004787 -0400,
3,0,3,0,206.95747429993935,,,,206.94190620002337,211.94099759997334,211.94100380002055,211.95752109994646,219.94093389995396,219.94093389995396,222.15763399994466,222.9409663999686,222.9409663999686,222.92446399992332,4.25,4.55,425,455,8,3,1.2,0.75,471,3,474,0.3,1,m,1.3514139999169856,None,,,,,,,,sub-066,COM3,47.1,2025-09-16_13h25.42.055,2024_RDpaindiscrimination_QUEST,2023.2.3,59.9887221460989,2025-09-16 13h25.59.004787 -0400,
4,0,4,0,222.9409663999686,,,,222.92537630000152,227.9244950999273,227.92450109997299,227.9410171000054,235.92443909996655,235.92443909996655,238.1411030999152,238.9243416999234,238.9243416999234,238.90794870001264,3.26,5.54,326,554,8,3,1.2,0.75,471,0,474,0.3,1,m,1.645829299930483,None,,,,,,,,sub-066,COM3,47.1,2025-09-16_13h25.42.055,2024_RDpaindiscrimination_QUEST,2023.2.3,59.9887221460989,2025-09-16 13h25.59.004787 -0400,
5,0,5,0,238.9243416999234,,,,238.90888000000268,243.90799129998777,243.90799709991552,243.92451869999059,251.9079301999882,251.9079301999882,254.12449790001847,254.90798309992533,254.90798309992533,254.891440999927,3.27,5.53,327,553,8,3,1.2,0.75,471,1,474,0.3,1,m,1.5731281000189483,None,,,,,,,,sub-066,COM3,47.1,2025-09-16_13h25.42.055,2024_RDpaindiscrimination_QUEST,2023.2.3,59.9887221460989,2025-09-16 13h25.59.004787 -0400,
6,0,6,0,254.90798309992533,,,,254.89238909992855,259.89150429994334,259.8915103999898,259.9080133999232,267.8914269999368,267.8914269999368,270.108119099983,270.8914471999742,270.8914471999742,270.87494220002554,3.61,5.19,361,519,8,3,1.2,0.75,471,2,474,0.3,None,None,,,,,,,,,,sub-066,COM3,47.1,2025-09-16_13h25.42.055,2024_RDpaindiscrimination_QUEST,2023.2.3,59.9887221460989,2025-09-16 13h25.59.004787 -0400,
7,0,7,0,270.8914471999742,,,,270.8757959000068,275.87497609993443,275.87498249998316,275.89151129999664,283.8749191999668,283.8749191999668,286.0916126000229,286.8749728000257,286.8749728000257,286.8584478999255,3.82,4.98,382,498,8,3,1.2,0.75,471,3,474,0.3,0,n,0.9384309999877587,None,,,,,,,,sub-066,COM3,47.1,2025-09-16_13h25.42.055,2024_RDpaindiscrimination_QUEST,2023.2.3,59.9887221460989,2025-09-16 13h25.59.004787 -0400,
8,0,8,0,286.8749728000257,,,,286.8593726999825,291.85846699995454,291.85847320000175,291.87500739993993,299.8584262999939,299.8584262999939,302.07511039997917,302.85846799996216,302.85846799996216,302.841931700008,4.72,4.08,472,408,8,3,1.2,0.75,471,0,477,0.6,1,m,0.4070724000921473,None,,,,,,,,sub-066,COM3,47.1,2025-09-16_13h25.42.055,2024_RDpaindiscrimination_QUEST,2023.2.3,59.9887221460989,2025-09-16 13h25.59.004787 -0400,
9,0,9,0,302.85846799996216,,,,302.84292299998924,307.8420337999705,307.8420404000208,307.8584365999559,315.8418403000105,315.8418403000105,318.0585215999745,318.84191399998963,318.84191399998963,318.8254263999406,4.34,4.46,434,446,8,3,1.2,0.75,471,1,477,0.6,1,m,0.9351853000698611,None,,,,,,,,sub-066,COM3,47.1,2025-09-16_13h25.42.055,2024_RDpaindiscrimination_QUEST,2023.2.3,59.9887221460989,2025-09-16 13h25.59.004787 -0400,
10,0,10,0,318.84191399998963,,,,318.82636289997026,323.8254721999401,323.82547809998505,323.8419985999353,331.8252960999962,331.8252960999962,334.04210909991525,334.82546099997126,334.82546099997126,334.80895989993587,4.54,4.26,454,426,8,3,1.2,0.75,471,2,475,0.39999999999999997,1,m,1.138986400095746,None,,,,,,,,sub-066,COM3,47.1,2025-09-16_13h25.42.055,2024_RDpaindiscrimination_QUEST,2023.2.3,59.9887221460989,2025-09-16 13h25.59.004787 -0400,
11,0,11,0,334.82546099997126,,,,334.8099177000113,339.80895759991836,339.8089626999572,339.82550319994334,347.8254577999469,347.8254577999469,350.0254842999857,350.8254932999844,350.8254932999844,350.8089715000242,3.77,5.03,377,503,8,3,1.2,0.75,471,3,475,0.39999999999999997,1,m,0.8432528999401256,None,,,,,,,,sub-066,COM3,47.1,2025-09-16_13h25.42.055,2024_RDpaindiscrimination_QUEST,2023.2.3,59.9887221460989,2025-09-16 13h25.59.004787 -0400,
12,0,12,0,350.8254932999844,,,,350.8098903999198,355.8089889999246,355.808994699968,355.82553029991686,363.80907019996084,363.80907019996084,366.02577339997515,366.8091213000007,366.8091213000007,366.79259009996895,3.38,5.42,338,542,8,3,1.2,0.75,471,0,474,0.3,1,m,0.6079280999256298,None,,,,,,,,sub-066,COM3,47.1,2025-09-16_13h25.42.055,2024_RDpaindiscrimination_QUEST,2023.2.3,59.9887221460989,2025-09-16 13h25.59.004787 -0400,
13,0,13,0,366.8091213000007,,,,366.79350879997946,371.79263359995093,371.79263929999433,371.8091497999849,379.7925881999545,379.7925881999545,382.0092653000029,382.7926083999919,382.7926083999919,382.7760893999366,3.71,5.09,371,509,8,3,1.2,0.75,471,1,474,0.3,1,m,0.952980799949728,None,,,,,,,,sub-066,COM3,47.1,2025-09-16_13h25.42.055,2024_RDpaindiscrimination_QUEST,2023.2.3,59.9887221460989,2025-09-16 13h25.59.004787 -0400,
14,0,14,0,382.7926083999919,,,,382.77702849998605,387.77599679993,387.7760027999757,387.7925359000219,395.7759504999267,395.7759504999267,397.9926399999531,398.77600600000005,398.77600600000005,398.75946229998954,4.25,4.55,425,455,8,3,1.2,0.75,471,2,474,0.3,1,m,0.6527032000012696,None,,,,,,,,sub-066,COM3,47.1,2025-09-16_13h25.42.055,2024_RDpaindiscrimination_QUEST,2023.2.3,59.9887221460989,2025-09-16 13h25.59.004787 -0400,
15,0,15,0,398.77600600000005,,,,398.76037759997416,403.75949560001027,403.75950179994106,403.7760754999472,411.7594573999522,411.7594573999522,413.9761451999657,414.75948579993565,414.75948579993565,414.74296659999527,3.91,4.89,391,488,8,3,1.2,0.75,471,3,474,0.3,1,m,1.308927399921231,None,,,,,,,,sub-066,COM3,47.1,2025-09-16_13h25.42.055,2024_RDpaindiscrimination_QUEST,2023.2.3,59.9887221460989,2025-09-16 13h25.59.004787 -0400,
16,0,16,0,414.75948579993565,,,,414.7438579999143,419.74303000001237,419.7430362999439,419.75953759998083,427.7429507999914,427.7429507999914,429.9596755999373,430.74300030001905,430.74300030001905,430.72645890002605,3.66,5.14,366,514,8,3,1.2,0.75,471,0,474,0.3,1,m,1.1621882000472397,None,,,,,,,,sub-066,COM3,47.1,2025-09-16_13h25.42.055,2024_RDpaindiscrimination_QUEST,2023.2.3,59.9887221460989,2025-09-16 13h25.59.004787 -0400,
17,0,17,0,430.74300030001905,,,,430.7273491999367,435.7265362999169,435.72654139995575,435.74303829995915,443.726453899988,443.726453899988,445.9431756999111,446.72648479999043,446.72648479999043,446.7099624000257,3.97,4.83,397,483,8,3,1.2,0.75,471,1,474,0.3,1,m,0.46572940004989505,None,,,,,,,,sub-066,COM3,47.1,2025-09-16_13h25.42.055,2024_RDpaindiscrimination_QUEST,2023.2.3,59.9887221460989,2025-09-16 13h25.59.004787 -0400,
18,0,18,0,446.72648479999043,,,,446.71086519991513,451.7099958999315,451.71000179997645,451.72654289996717,459.70995569997467,459.70995569997467,461.92663779994473,462.7099845999619,462.7099845999619,462.6935042999685,3.78,5.02,378,501,8,3,1.2,0.75,471,2,474,0.3,1,m,1.03099779994227,None,,,,,,,,sub-066,COM3,47.1,2025-09-16_13h25.42.055,2024_RDpaindiscrimination_QUEST,2023.2.3,59.9887221460989,2025-09-16 13h25.59.004787 -0400,
19,0,19,0,462.7099845999619,,,,462.69444949994795,467.6934923999943,467.69349869992584,467.7100336999865,475.6934489000123,475.6934489000123,477.9102045999607,478.6935184999602,478.6935184999602,478.67709130002186,3.64,5.16,364,516,8,3,1.2,0.75,471,3,474,0.3,1,m,1.1557077000616118,None,,,,,,,,sub-066,COM3,47.1,2025-09-16_13h25.42.055,2024_RDpaindiscrimination_QUEST,2023.2.3,59.9887221460989,2025-09-16 13h25.59.004787 -0400,
20,0,20,0,478.6935184999602,,,,478.67798799998127,483.67701939994004,483.67702589998953,483.69355610001367,491.6770642999327,491.6770642999327,493.8936440999387,494.67700619995594,494.67700619995594,494.66055009991396,4.08,4.72,408,472,8,3,1.2,0.75,471,0,474,0.3,1,m,1.1471505999797955,None,,,,,,,,sub-066,COM3,47.1,2025-09-16_13h25.42.055,2024_RDpaindiscrimination_QUEST,2023.2.3,59.9887221460989,2025-09-16 13h25.59.004787 -0400,
21,0,21,0,494.67700619995594,,,,494.6614619999891,499.6605284999823,499.6605347999139,499.67710500000976,507.66050509992056,507.66050509992056,509.877170199994,510.6605119999731,510.6605119999731,510.64402969996445,4.31,4.49,430,449,8,3,1.2,0.75,471,1,474,0.3,1,m,0.7036496000364423,None,,,,,,,,sub-066,COM3,47.1,2025-09-16_13h25.42.055,2024_RDpaindiscrimination_QUEST,2023.2.3,59.9887221460989,2025-09-16 13h25.59.004787 -0400,
22,0,22,0,510.6605119999731,,,,510.64494459994603,515.6440160999773,515.644022100023,515.6605663999217,523.6439754000166,523.6439754000166,525.8606605000095,526.6440141999628,526.6440141999628,526.6274791000178,3.96,4.84,396,484,8,3,1.2,0.75,471,2,474,0.3,1,m,0.9123459999682382,None,,,,,,,,sub-066,COM3,47.1,2025-09-16_13h25.42.055,2024_RDpaindiscrimination_QUEST,2023.2.3,59.9887221460989,2025-09-16 13h25.59.004787 -0400,
23,0,23,0,526.6440141999628,,,,526.628371299943,531.6275065999944,531.6275122999214,531.6440968000097,539.6274873999646,539.6274873999646,541.8441761999857,542.6275176999625,542.6275176999625,542.6110021999339,3.47,5.33,347,533,8,3,1.2,0.75,471,3,474,0.3,1,m,0.9334821999073029,None,,,,,,,,sub-066,COM3,47.1,2025-09-16_13h25.42.055,2024_RDpaindiscrimination_QUEST,2023.2.3,59.9887221460989,2025-09-16 13h25.59.004787 -0400,
24,0,24,0,542.6275176999625,,,,542.611897499999,547.6110422000056,547.6110479999334,547.6275642999681,555.6109998999164,555.6109998999164,557.8276371000102,558.6110787999351,558.6110787999351,558.5944588999264,4.37,4.43,437,443,8,3,1.2,0.75,471,0,474,0.3,1,m,1.1576049999566749,None,,,,,,,,sub-066,COM3,47.1,2025-09-16_13h25.42.055,2024_RDpaindiscrimination_QUEST,2023.2.3,59.9887221460989,2025-09-16 13h25.59.004787 -0400,
25,0,25,0,558.6110787999351,,,,558.5953718000092,563.594493099954,563.5944989999989,563.6110384999774,571.594476099941,571.594476099941,573.8111802999629,574.5945376999443,574.5945376999443,574.5779625999276,3.77,5.03,377,503,8,3,1.2,0.75,471,1,474,0.3,1,m,0.5782844999339432,None,,,,,,,,sub-066,COM3,47.1,2025-09-16_13h25.42.055,2024_RDpaindiscrimination_QUEST,2023.2.3,59.9887221460989,2025-09-16 13h25.59.004787 -0400,
26,0,26,0,574.5945376999443,,,,574.5788985999534,579.5780295999721,579.5780354000162,579.5945277999854,587.5779503999511,587.5779503999511,589.7946394999744,590.5779811999528,590.5779811999528,590.5614748999942,3.6,5.2,360,520,8,3,1.2,0.75,471,2,474,0.3,1,m,0.4421662000240758,None,,,,,,,,sub-066,COM3,47.1,2025-09-16_13h25.42.055,2024_RDpaindiscrimination_QUEST,2023.2.3,59.9887221460989,2025-09-16 13h25.59.004787 -0400,
27,0,27,0,590.5779811999528,,,,590.5623765999917,595.56148569996,595.5614917000057,595.5779994999757,603.5614489999134,603.5614489999134,605.7781410999596,606.5614841999486,606.5614841999486,606.5453903999878,4.6,4.2,459,420,8,3,1.2,0.75,471,3,474,0.3,1,m,1.312245300039649,None,,,,,,,,sub-066,COM3,47.1,2025-09-16_13h25.42.055,2024_RDpaindiscrimination_QUEST,2023.2.3,59.9887221460989,2025-09-16 13h25.59.004787 -0400,
28,0,28,0,606.5614841999486,,,,606.5463391999947,611.5450069999788,611.5450127000222,611.5615343999816,619.5616792999208,619.5616792999208,621.7616447999608,622.5616846999619,622.5616846999619,622.5451844999334,4.59,4.21,459,421,8,3,1.2,0.75,471,0,474,0.3,1,m,0.7587936000199988,None,,,,,,,,sub-066,COM3,47.1,2025-09-16_13h25.42.055,2024_RDpaindiscrimination_QUEST,2023.2.3,59.9887221460989,2025-09-16 13h25.59.004787 -0400,
29,0,29,0,622.5616846999619,,,,622.5460680000251,627.5451889999676,627.5451944000088,627.5617333999835,635.5451492000138,635.5451492000138,637.7619189999532,638.5451948000118,638.5451948000118,638.5286625999724,4.06,4.74,405,474,8,3,1.2,0.75,471,1,474,0.3,1,m,1.0989113000687212,None,,,,,,,,sub-066,COM3,47.1,2025-09-16_13h25.42.055,2024_RDpaindiscrimination_QUEST,2023.2.3,59.9887221460989,2025-09-16 13h25.59.004787 -0400,
30,0,30,0,638.5451948000118,,,,638.5295748999342,643.5287022999255,643.5287080999697,643.5452596999239,651.5286491999868,651.5286491999868,653.745339200017,654.5286807999946,654.5286807999946,654.5121609999333,3.97,4.83,397,483,8,3,1.2,0.75,471,2,474,0.3,1,m,1.3481982999946922,None,,,,,,,,sub-066,COM3,47.1,2025-09-16_13h25.42.055,2024_RDpaindiscrimination_QUEST,2023.2.3,59.9887221460989,2025-09-16 13h25.59.004787 -0400,
31,0,31,0,654.5286807999946,,,,654.5130808999529,659.512208799948,659.5122149999952,659.5287407999858,667.5121480999514,667.5121480999514,669.7288404999999,670.5121833999874,670.5121833999874,670.4956676999573,4.69,4.11,469,411,8,3,1.2,0.75,471,3,474,0.3,1,m,1.2799865999259055,None,,,,,,,,sub-066,COM3,47.1,2025-09-16_13h25.42.055,2024_RDpaindiscrimination_QUEST,2023.2.3,59.9887221460989,2025-09-16 13h25.59.004787 -0400,
32,0,32,0,670.5121833999874,,,,670.4970661000116,675.4956964999437,675.4957023999887,675.5122362999246,683.5123158999486,683.5123158999486,685.7123413999798,686.5124034999171,686.5124034999171,686.495892399922,4.01,4.79,401,479,8,3,1.2,0.75,471,0,474,0.3,1,m,0.6804872999200597,None,,,,,,,,sub-066,COM3,47.1,2025-09-16_13h25.42.055,2024_RDpaindiscrimination_QUEST,2023.2.3,59.9887221460989,2025-09-16 13h25.59.004787 -0400,
,,,,,,,,,,,,,,,,,,,,,,,,,,,,,,,,,,686.4967541999649,686.5124034999171,692.5625240999507,692.495880399947,0.44999999999999996,47.550000000000004,0.23766635184423704,,,,,,,,,
