trials.thisRepN,trials.thisTrialN,trials.thisN,trials.thisIndex,loop_test.thisRepN,loop_test.thisTrialN,loop_test.thisN,loop_test.thisIndex,loop_eval_discri.thisRepN,loop_eval_discri.thisTrialN,loop_eval_discri.thisN,loop_eval_discri.thisIndex,loop_eval.thisRepN,loop_eval.thisTrialN,loop_eval.thisN,loop_eval.thisIndex,loop_discri.thisRepN,loop_discri.thisTrialN,loop_discri.thisN,loop_discri.thisIndex,thisRow.t,notes,Set_up.started,Set_up.stopped,electrode_check.started,electrode_check.stopped,instructions_eval.started,instructions_eval.stopped,pause_5_test.started,pause_5_test.stopped,Phase_Test.started,thermode_locali.started,Phase_Test.stopped,loca_thermode,condition,temp_trial_sent,eval_douleur.started,eval_douleur.stopped,ratingScale.response,ratingScale.rt,thermode_locali.stopped,Fin_test.started,text.started,Fin_test.stopped,pause_5_EVA.started,pause_5_EVA.stopped,tâche_EVA.started,thermode_locali_EVA.started,thermode_locali_EVA.stopped,tâche_EVA.stopped,instructions_discrim.started,instructions_discrim.stopped,pause_5_pic.started,pause_5_pic.stopped,tâche_PIC.started,thermode_locali_pic.started,percu_or.started,responser.started,thermode_locali_pic.stopped,percu_or.stopped,responser.stopped,tâche_PIC.stopped,dur_plateau1,dur_plateau2,dur_plateau1_sent,dur_plateau2_sent,start_plateau_2_resp,dur_pic,dur_rise,pic_presence,pic_response,discrimin_resp.keys,discrimin_resp.rt,discrimin_resp.duration,break_entre_bloc.started,break_entre_bloc.stopped,merci.started,merci.stopped,participant,temp_flat,temp_active,temp_pic_set,com_thermode,date,expName,psychopyVersion,frameRate,expStart,
0,0,0,0,0,0,0,0,,,,,,,,,,,,,296.5759999998845,,0.006322099827229977,286.8762382999994,286.8766458998434,288.34286939981394,288.34287819988094,296.5430636999663,296.54335259995423,301.55949109978974,301.5594966998324,301.5761417998001,313.5595936998725,0,active,43.7,313.5598257998936,318.32904849993065,26.500000000000057,4.745,,,,,,,,,,,,,,,,,,,,,,,,,,,,,,,,,,,,,,,sub-069,45.8,43.7,46.2,COM3,2025-09-25_16h22.35.756,2024_RDpaindiscrimination_maintask,2023.2.3,59.99480439640916,2025-09-25 16h23.00.346088 -0400,
0,0,0,0,1,0,1,0,,,,,,,,,,,,,318.34298109984957,,,,,,,,318.3299274998717,323.3264930997975,323.32649869984016,323.34307449986227,335.32669429993257,1,inactive,45.8,335.32682989980094,339.5123031998519,85.99999999999991,4.165,335.35970499995165,,,,,,,,,,,,,,,,,,,,,,,,,,,,,,,,,,,,,,sub-069,45.8,43.7,46.2,COM3,2025-09-25_16h22.35.756,2024_RDpaindiscrimination_maintask,2023.2.3,59.99480439640916,2025-09-25 16h23.00.346088 -0400,
0,0,0,0,2,0,2,0,,,,,,,,,,,,,339.52652579988353,,,,,,,,339.51302389986813,344.5100413998589,344.5100465998985,344.5265848999843,356.5102367999498,2,active,43.7,356.51037529995665,359.2290829999838,19.500000000000036,2.699,356.5433676999528,,,,,,,,,,,,,,,,,,,,,,,,,,,,,,,,,,,,,,sub-069,45.8,43.7,46.2,COM3,2025-09-25_16h22.35.756,2024_RDpaindiscrimination_maintask,2023.2.3,59.99480439640916,2025-09-25 16h23.00.346088 -0400,
0,0,0,0,3,0,3,0,,,,,,,,,,,,,359.24332929984666,,,,,,,,359.22984839999117,364.2269533998333,364.226959399879,364.24345249985345,376.2271300998982,3,inactive,45.8,376.22726889979094,379.94498739996925,83.99999999999994,3.698,376.26023889984936,,,,,,,,,,,,,,,,,,,,,,,,,,,,,,,,,,,,,,sub-069,45.8,43.7,46.2,COM3,2025-09-25_16h22.35.756,2024_RDpaindiscrimination_maintask,2023.2.3,59.99480439640916,2025-09-25 16h23.00.346088 -0400,
0,0,0,0,4,0,4,0,,,,,,,,,,,,,379.9603182999417,,,,,,,,379.94581319997087,384.94367509987205,384.943680399796,384.96020689979196,396.9441312998533,0,inactive,45.8,396.94427819992416,398.712205799995,88.50000000000011,1.748,396.97711029998027,,,,,,,,,,,,,,,,,,,,,,,,,,,,,,,,,,,,,,sub-069,45.8,43.7,46.2,COM3,2025-09-25_16h22.35.756,2024_RDpaindiscrimination_maintask,2023.2.3,59.99480439640916,2025-09-25 16h23.00.346088 -0400,
0,0,0,0,5,0,5,0,,,,,,,,,,,,,398.7271479999181,,,,,,,,398.7129753998015,403.71053779986687,403.7105433999095,403.7271833999548,415.71082809986547,1,active,43.7,415.71096609998494,418.513373499969,17.000000000000032,2.782,415.74390319990925,,,,,,,,,,,,,,,,,,,,,,,,,,,,,,,,,,,,,,sub-069,45.8,43.7,46.2,COM3,2025-09-25_16h22.35.756,2024_RDpaindiscrimination_maintask,2023.2.3,59.99480439640916,2025-09-25 16h23.00.346088 -0400,
0,0,0,0,6,0,6,0,,,,,,,,,,,,,418.52725949999876,,,,,,,,418.5143918998074,423.51076289988123,423.5107683998067,423.52728019980714,435.5110579999164,2,inactive,45.8,435.5111949997954,437.0963133999612,80.0,1.564,435.5440961997956,,,,,,,,,,,,,,,,,,,,,,,,,,,,,,,,,,,,,,sub-069,45.8,43.7,46.2,COM3,2025-09-25_16h22.35.756,2024_RDpaindiscrimination_maintask,2023.2.3,59.99480439640916,2025-09-25 16h23.00.346088 -0400,
0,0,0,0,7,0,7,0,,,,,,,,,,,,,437.1107665998861,,,,,,,,437.09657850000076,442.0942833998706,442.0942898998037,442.11080279992893,454.0946016998496,3,active,43.7,454.0947398999706,456.67979209986515,27.99999999999998,2.565,454.1275904998183,,,,,,,,,,,,,,,,,,,,,,,,,,,,,,,,,,,,,,sub-069,45.8,43.7,46.2,COM3,2025-09-25_16h22.35.756,2024_RDpaindiscrimination_maintask,2023.2.3,59.99480439640916,2025-09-25 16h23.00.346088 -0400,
0,0,0,0,8,0,8,0,,,,,,,,,,,,,456.69428179995157,,,,,,,,456.6806112998165,461.6777974998113,461.6778026998509,461.69434569985606,473.6781842999626,0,inactive,45.8,473.67832589987665,477.9142859999556,81.99999999999982,4.216,473.7112365998328,,,,,,,,,,,,,,,,,,,,,,,,,,,,,,,,,,,,,,sub-069,45.8,43.7,46.2,COM3,2025-09-25_16h22.35.756,2024_RDpaindiscrimination_maintask,2023.2.3,59.99480439640916,2025-09-25 16h23.00.346088 -0400,
0,0,0,0,9,0,9,0,,,,,,,,,,,,,477.9278810999822,,,,,,,,477.9151583998464,482.9114081999287,482.9114135999698,482.9279249999672,494.9116968999151,1,active,43.7,494.91183259990066,497.04626169987023,45.00000000000006,2.114,494.9446749999188,,,,,,,,,,,,,,,,,,,,,,,,,,,,,,,,,,,,,,sub-069,45.8,43.7,46.2,COM3,2025-09-25_16h22.35.756,2024_RDpaindiscrimination_maintask,2023.2.3,59.99480439640916,2025-09-25 16h23.00.346088 -0400,
0,0,0,0,10,0,10,0,,,,,,,,,,,,,497.06138159986585,,,,,,,,497.04704410000704,502.0449296999723,502.0449353000149,502.0614559999667,514.0452140998095,2,inactive,45.8,514.0453509998042,515.8814428998157,80.49999999999997,1.817,514.0782450998668,,,,,,,,,,,,,,,,,,,,,,,,,,,,,,,,,,,,,,sub-069,45.8,43.7,46.2,COM3,2025-09-25_16h22.35.756,2024_RDpaindiscrimination_maintask,2023.2.3,59.99480439640916,2025-09-25 16h23.00.346088 -0400,
0,0,0,0,11,0,11,0,,,,,,,,,,,,,515.8949814999942,,,,,,,,515.8821992999874,520.87847399991,520.8784795999527,520.8949591999408,532.8787737998646,3,active,43.7,532.8789195998106,535.3135887999088,23.500000000000128,2.415,532.9118097999599,,,,,,,,,,,,,,,,,,,,,,,,,,,,,,,,,,,,,,sub-069,45.8,43.7,46.2,COM3,2025-09-25_16h22.35.756,2024_RDpaindiscrimination_maintask,2023.2.3,59.99480439640916,2025-09-25 16h23.00.346088 -0400,
0,0,0,0,12,0,12,0,,,,,,,,,,,,,535.3284626998939,,,,,,,,535.3144298999105,540.3119856999256,540.3119912999682,540.3285249997862,552.312294599833,0,active,43.7,552.3124462999403,556.6150045997929,12.500000000000135,4.283,552.3453699999955,,,,,,,,,,,,,,,,,,,,,,,,,,,,,,,,,,,,,,sub-069,45.8,43.7,46.2,COM3,2025-09-25_16h22.35.756,2024_RDpaindiscrimination_maintask,2023.2.3,59.99480439640916,2025-09-25 16h23.00.346088 -0400,
0,0,0,0,13,0,13,0,,,,,,,,,,,,,556.628719799919,,,,,,,,556.6158153999131,561.612225699937,561.6122316999827,561.6287475000136,573.612502799835,1,inactive,45.8,573.6126606999896,576.0646520999726,82.49999999999997,2.431,573.6455367999151,,,,,,,,,,,,,,,,,,,,,,,,,,,,,,,,,,,,,,sub-069,45.8,43.7,46.2,COM3,2025-09-25_16h22.35.756,2024_RDpaindiscrimination_maintask,2023.2.3,59.99480439640916,2025-09-25 16h23.00.346088 -0400,
0,0,0,0,14,0,14,0,,,,,,,,,,,,,576.0789465999696,,,,,,,,576.0653983999509,581.062468299875,581.0624737998005,581.0789606999606,593.0627495998051,2,active,43.7,593.0628841000143,596.5656761999708,11.000000000000071,3.483,593.095739999786,,,,,,,,,,,,,,,,,,,,,,,,,,,,,,,,,,,,,,sub-069,45.8,43.7,46.2,COM3,2025-09-25_16h22.35.756,2024_RDpaindiscrimination_maintask,2023.2.3,59.99480439640916,2025-09-25 16h23.00.346088 -0400,
0,0,0,0,15,0,15,0,,,,,,,,,,,,,596.5791799998842,,,,,,,,596.5664843998384,601.5626079000067,601.5626144998241,601.579124599928,613.5629264998715,3,inactive,45.8,613.563064499991,616.7318797998596,73.49999999999982,3.149,613.5959887998179,,,,,,,,,,,,,,,,,,,,,,,,,,,,,,,,,,,,,,sub-069,45.8,43.7,46.2,COM3,2025-09-25_16h22.35.756,2024_RDpaindiscrimination_maintask,2023.2.3,59.99480439640916,2025-09-25 16h23.00.346088 -0400,
0,0,0,0,,,,,0,0,0,0,0,0,0,0,,,,,630.5127642999869,,,,,,629.480001399992,630.4963139998727,,,,,,0,inactive,45.8,647.4965787997935,649.6806186998729,84.00000000000006,2.164,,616.7324589998461,616.746011500014,629.4796815000009,630.4966050998773,635.4962779998314,635.4962837998755,635.5128489998169,647.5296263999771,647.4965709999669,,,,,,,,,,,,,,,,,,,,,,,,,,,,,sub-069,45.8,43.7,46.2,COM3,2025-09-25_16h22.35.756,2024_RDpaindiscrimination_maintask,2023.2.3,59.99480439640916,2025-09-25 16h23.00.346088 -0400,
0,0,0,0,,,,,0,0,0,0,1,0,1,0,,,,,649.6963296998292,,,,,,,,,,,,,1,active,45.8,666.6801110999659,668.9158621998504,70.0,2.215,,,,,649.6810882999562,654.6798171999399,654.6798232998699,654.6963475998491,666.7131664999761,666.6801031997893,,,,,,,,,,,,,,,,,,,,,,,,,,,,,sub-069,45.8,43.7,46.2,COM3,2025-09-25_16h22.35.756,2024_RDpaindiscrimination_maintask,2023.2.3,59.99480439640916,2025-09-25 16h23.00.346088 -0400,
0,0,0,0,,,,,0,0,0,0,,,,,0,0,0,0,671.9798621998634,,,,,,,,,,,,,2,inactive,,,,,,,,,,,,,,,,668.9164354999084,671.9634976999369,671.9638240998611,676.9633759998251,676.9633817998692,676.979911299888,684.9633298998233,684.9633298998233,687.9300334998406,687.9634067998268,687.9634067998268,687.9468358999584,3.74,5.06,374,505,8,1.2,0.75,pic-present,1,n,0.623446200042963,None,,,,,sub-069,45.8,43.7,46.2,COM3,2025-09-25_16h22.35.756,2024_RDpaindiscrimination_maintask,2023.2.3,59.99480439640916,2025-09-25 16h23.00.346088 -0400,
0,0,0,0,,,,,0,0,0,0,,,,,1,0,1,0,687.9634067998268,,,,,,,,,,,,,3,active,,,,,,,,,,,,,,,,,,687.9474288998172,692.946880799951,692.9468870998826,692.9634145000018,700.9468667998444,700.9468667998444,703.9136508998927,703.9469835998025,703.9469835998025,703.9304869999178,3.66,5.14,366,514,8,1.2,0.75,pic-absent,1,n,0.48024699999950826,None,,,,,sub-069,45.8,43.7,46.2,COM3,2025-09-25_16h22.35.756,2024_RDpaindiscrimination_maintask,2023.2.3,59.99480439640916,2025-09-25 16h23.00.346088 -0400,
0,0,0,0,,,,,0,0,0,0,,,,,2,0,2,0,703.9469835998025,,,,,,,,,,,,,0,active,,,,,,,,,,,,,,,,,,703.9309854998719,708.9304912998341,708.9304982000031,708.9470357999671,716.9304603999481,716.9304603999481,719.8971569999121,719.9304903999437,719.9304903999437,719.9140079999343,3.8,5.0,380,500,8,1.2,0.75,pic-present,1,n,0.5084442000370473,None,,,,,sub-069,45.8,43.7,46.2,COM3,2025-09-25_16h22.35.756,2024_RDpaindiscrimination_maintask,2023.2.3,59.99480439640916,2025-09-25 16h23.00.346088 -0400,
0,0,0,0,,,,,0,0,0,0,,,,,3,0,3,0,719.9304903999437,,,,,,,,,,,,,1,inactive,,,,,,,,,,,,,,,,,,719.9144955999218,724.9139870000072,724.9139937998261,724.9305390999652,732.9139331998304,732.9139331998304,735.8806465999223,735.9139913998079,735.9139913998079,735.8974659999367,3.65,5.15,365,515,8,1.2,0.75,pic-present,1,n,0.7654965999536216,None,,,,,sub-069,45.8,43.7,46.2,COM3,2025-09-25_16h22.35.756,2024_RDpaindiscrimination_maintask,2023.2.3,59.99480439640916,2025-09-25 16h23.00.346088 -0400,
0,0,0,0,,,,,1,0,1,0,0,0,0,0,,,,,736.8973327998538,,,,,,735.8979642000049,736.8809177998919,,,,,,2,active,45.8,753.8811576999724,758.4336650997866,64.49999999999991,4.532,,,,,736.8811835998204,741.8808630998246,741.8808691999875,741.8973739999346,753.9140851998236,753.8811503998004,,,,,,,,,,,,,,,,,,,,,,,,,,,,,sub-069,45.8,43.7,46.2,COM3,2025-09-25_16h22.35.756,2024_RDpaindiscrimination_maintask,2023.2.3,59.99480439640916,2025-09-25 16h23.00.346088 -0400,
0,0,0,0,,,,,1,0,1,0,1,0,1,0,,,,,758.4475503999274,,,,,,,,,,,,,3,inactive,45.8,775.431367199868,777.9829327999614,83.99999999999991,2.475,,,,,758.4343920999672,763.431038599927,763.4310443999711,763.4476049998775,775.5144156999886,775.4313602999318,,,,,,,,,,,,,,,,,,,,,,,,,,,,,sub-069,45.8,43.7,46.2,COM3,2025-09-25_16h22.35.756,2024_RDpaindiscrimination_maintask,2023.2.3,59.99480439640916,2025-09-25 16h23.00.346088 -0400,
0,0,0,0,,,,,1,0,1,0,,,,,0,0,0,0,779.8477935998235,,,,,,,,,,,,,0,active,,,,,,,,,,,,,,,,777.9834679998457,779.8313618998509,779.8316670998465,784.8312800999265,784.831285999855,784.8478576999623,792.8312563998625,792.8312563998625,795.7978433999233,795.8312460999005,795.8312460999005,795.8146710000001,4.1,4.7,409,470,8,1.2,0.75,pic-absent,1,n,0.5201492002233863,None,,,,,sub-069,45.8,43.7,46.2,COM3,2025-09-25_16h22.35.756,2024_RDpaindiscrimination_maintask,2023.2.3,59.99480439640916,2025-09-25 16h23.00.346088 -0400,
0,0,0,0,,,,,1,0,1,0,,,,,1,0,1,0,795.8312460999005,,,,,,,,,,,,,1,inactive,,,,,,,,,,,,,,,,,,795.815196499927,800.8147909999825,800.8147981998045,800.8313076999038,808.8146267998964,808.8146267998964,811.781440799823,811.814719799906,811.814719799906,811.7982212000061,4.65,4.15,465,415,8,1.2,0.75,pic-present,0,m,0.6363121001049876,None,,,,,sub-069,45.8,43.7,46.2,COM3,2025-09-25_16h22.35.756,2024_RDpaindiscrimination_maintask,2023.2.3,59.99480439640916,2025-09-25 16h23.00.346088 -0400,
0,0,0,0,,,,,1,0,1,0,,,,,2,0,2,0,811.814719799906,,,,,,,,,,,,,2,inactive,,,,,,,,,,,,,,,,,,811.7987078998704,816.798298599897,816.7983051999472,816.8148334999569,824.7982427999377,824.7982427999377,827.7648899999913,827.7982665000018,827.7982665000018,827.7817419997882,3.68,5.12,368,512,8,1.2,0.75,pic-present,0,m,0.5218905999790877,None,,,,,sub-069,45.8,43.7,46.2,COM3,2025-09-25_16h22.35.756,2024_RDpaindiscrimination_maintask,2023.2.3,59.99480439640916,2025-09-25 16h23.00.346088 -0400,
0,0,0,0,,,,,1,0,1,0,,,,,3,0,3,0,827.7982665000018,,,,,,,,,,,,,3,active,,,,,,,,,,,,,,,,,,827.7822416999843,832.7818062999286,832.7818131998647,832.7983357999474,840.7816320999991,840.7816320999991,843.7483200000133,843.7816562999506,843.7816562999506,843.7652125000022,4.67,4.13,467,413,8,1.2,0.75,pic-absent,1,n,0.801216599997133,None,,,,,sub-069,45.8,43.7,46.2,COM3,2025-09-25_16h22.35.756,2024_RDpaindiscrimination_maintask,2023.2.3,59.99480439640916,2025-09-25 16h23.00.346088 -0400,
0,0,0,0,,,,,2,0,2,0,0,0,0,0,,,,,845.0816682998557,,,,,,843.7657269998454,845.06523619988,,,,,,0,active,45.8,862.0654915999621,864.6515207998455,41.49999999999993,2.565,,,,,845.0655206998345,850.0652177999727,850.0652240999043,850.0817217999138,862.0985333998688,862.0654833998997,,,,,,,,,,,,,,,,,,,,,,,,,,,,,sub-069,45.8,43.7,46.2,COM3,2025-09-25_16h22.35.756,2024_RDpaindiscrimination_maintask,2023.2.3,59.99480439640916,2025-09-25 16h23.00.346088 -0400,
0,0,0,0,,,,,2,0,2,0,1,0,1,0,,,,,864.665355999954,,,,,,,,,,,,,1,inactive,45.8,881.6490177998785,884.5182041998487,74.49999999999984,2.849,,,,,864.6523095997982,869.6487333998084,869.6487393998541,869.665261299815,881.6820464998018,881.6490106999408,,,,,,,,,,,,,,,,,,,,,,,,,,,,,sub-069,45.8,43.7,46.2,COM3,2025-09-25_16h22.35.756,2024_RDpaindiscrimination_maintask,2023.2.3,59.99480439640916,2025-09-25 16h23.00.346088 -0400,
0,0,0,0,,,,,2,0,2,0,,,,,0,0,0,0,885.8820932998788,,,,,,,,,,,,,2,inactive,,,,,,,,,,,,,,,,884.5187344998121,885.8656274999958,885.8659420998301,890.865608099848,890.8656140998937,890.8821443999186,898.8656869998667,898.8656869998667,901.8322942999657,901.8656299998984,901.8656299998984,901.8491430999711,4.32,4.48,432,448,8,1.2,0.75,pic-absent,0,m,1.5889991000294685,None,,,,,sub-069,45.8,43.7,46.2,COM3,2025-09-25_16h22.35.756,2024_RDpaindiscrimination_maintask,2023.2.3,59.99480439640916,2025-09-25 16h23.00.346088 -0400,
0,0,0,0,,,,,2,0,2,0,,,,,1,0,1,0,901.8656299998984,,,,,,,,,,,,,3,active,,,,,,,,,,,,,,,,,,901.84967889986,906.8491583999712,906.8491644000169,906.8656793998089,914.8491676999256,914.8491676999256,917.8157932998147,917.8491272998508,917.8491272998508,917.8326022999827,3.43,5.37,343,537,8,1.2,0.75,pic-present,0,m,0.5419296999461949,None,,,,,sub-069,45.8,43.7,46.2,COM3,2025-09-25_16h22.35.756,2024_RDpaindiscrimination_maintask,2023.2.3,59.99480439640916,2025-09-25 16h23.00.346088 -0400,
0,0,0,0,,,,,2,0,2,0,,,,,2,0,2,0,917.8491272998508,,,,,,,,,,,,,0,inactive,,,,,,,,,,,,,,,,,,917.8330647998955,922.8326434998307,922.8326498998795,922.8491810997948,930.8325860998593,930.8325860998593,933.7993293998297,933.8326282999478,933.8326282999478,933.8161111997906,3.6,5.2,360,520,8,1.2,0.75,pic-absent,1,n,1.2258732998743653,None,,,,,sub-069,45.8,43.7,46.2,COM3,2025-09-25_16h22.35.756,2024_RDpaindiscrimination_maintask,2023.2.3,59.99480439640916,2025-09-25 16h23.00.346088 -0400,
0,0,0,0,,,,,2,0,2,0,,,,,3,0,3,0,933.8326282999478,,,,,,,,,,,,,1,inactive,,,,,,,,,,,,,,,,,,933.8165780999698,938.8161495998502,938.8161562997848,938.8327024998143,946.8161938998383,946.8161938998383,949.7828817998525,949.8162316998933,949.8162316998933,949.7996944999322,4.13,4.67,413,467,8,1.2,0.75,pic-absent,0,m,0.4076167999301106,None,,,,,sub-069,45.8,43.7,46.2,COM3,2025-09-25_16h22.35.756,2024_RDpaindiscrimination_maintask,2023.2.3,59.99480439640916,2025-09-25 16h23.00.346088 -0400,
0,0,0,0,,,,,3,0,3,0,0,0,0,0,,,,,951.366197399795,,,,,,949.8001635998953,951.3496900999453,,,,,,2,inactive,45.8,968.3499270000029,972.2849963998888,80.49999999999983,3.915,,,,,951.3499607997946,956.3497875998728,956.3497944998089,956.3661932998803,968.3829645998776,968.3499191999435,,,,,,,,,,,,,,,,,,,,,,,,,,,,,sub-069,45.8,43.7,46.2,COM3,2025-09-25_16h22.35.756,2024_RDpaindiscrimination_maintask,2023.2.3,59.99480439640916,2025-09-25 16h23.00.346088 -0400,
0,0,0,0,,,,,3,0,3,0,1,0,1,0,,,,,972.2997769999783,,,,,,,,,,,,,3,active,45.8,989.283488899935,994.3856473998167,71.99999999999991,5.082,,,,,972.2857458998915,977.2831450998783,977.2831513998099,977.2996778998058,989.3165110999253,989.2834801999852,,,,,,,,,,,,,,,,,,,,,,,,,,,,,sub-069,45.8,43.7,46.2,COM3,2025-09-25_16h22.35.756,2024_RDpaindiscrimination_maintask,2023.2.3,59.99480439640916,2025-09-25 16h23.00.346088 -0400,
0,0,0,0,,,,,3,0,3,0,,,,,0,0,0,0,995.8665446999948,,,,,,,,,,,,,0,active,,,,,,,,,,,,,,,,994.3861630999018,995.8501259998884,995.85041059996,1000.8500719999429,1000.8500783999916,1000.8665932998993,1008.8500447999686,1008.8500447999686,1011.8167847997975,1011.850072799949,1011.850072799949,1011.8335499998648,4.67,4.13,467,413,8,1.2,0.75,pic-present,1,n,0.5529690999537706,None,,,,,sub-069,45.8,43.7,46.2,COM3,2025-09-25_16h22.35.756,2024_RDpaindiscrimination_maintask,2023.2.3,59.99480439640916,2025-09-25 16h23.00.346088 -0400,
0,0,0,0,,,,,3,0,3,0,,,,,1,0,1,0,1011.850072799949,,,,,,,,,,,,,1,inactive,,,,,,,,,,,,,,,,,,1011.8340567999985,1016.8335539998952,1016.8335600998253,1016.8501844999846,1024.8335480999667,1024.8335480999667,1027.8002086000051,1027.8335400999058,1027.8335400999058,1027.8170377998613,4.12,4.68,412,468,8,1.2,0.75,pic-absent,1,n,0.7650487998034805,None,,,,,sub-069,45.8,43.7,46.2,COM3,2025-09-25_16h22.35.756,2024_RDpaindiscrimination_maintask,2023.2.3,59.99480439640916,2025-09-25 16h23.00.346088 -0400,
0,0,0,0,,,,,3,0,3,0,,,,,2,0,2,0,1027.8335400999058,,,,,,,,,,,,,2,active,,,,,,,,,,,,,,,,,,1027.8175278999843,1032.8170625998173,1032.8170691998675,1032.8336320999078,1040.8171323998831,1040.8171323998831,1043.7838313998654,1043.817112099845,1043.817112099845,1043.8005923999008,4.48,4.32,448,432,8,1.2,0.75,pic-absent,1,n,0.7216231999918818,None,,,,,sub-069,45.8,43.7,46.2,COM3,2025-09-25_16h22.35.756,2024_RDpaindiscrimination_maintask,2023.2.3,59.99480439640916,2025-09-25 16h23.00.346088 -0400,
0,0,0,0,,,,,3,0,3,0,,,,,3,0,3,0,1043.817112099845,,,,,,,,,,,,,3,active,,,,,,,,,,,,,,,,,,1043.8010892998427,1048.8006312998477,1048.8006380000152,1048.817159799859,1056.800569999963,1056.800569999963,1059.7673032998573,1059.8005479997955,1059.8005479997955,1059.7840981998015,3.81,4.99,381,499,8,1.2,0.75,pic-present,0,m,0.5224705999717116,None,,,,,sub-069,45.8,43.7,46.2,COM3,2025-09-25_16h22.35.756,2024_RDpaindiscrimination_maintask,2023.2.3,59.99480439640916,2025-09-25 16h23.00.346088 -0400,
1,0,1,0,0,0,0,0,,,,,,,,,,,,,1077.0007947999984,,,,1068.7010938997846,1076.6343361998443,1076.6343435999006,1076.9843777997885,1076.9846875998192,1081.9843380998354,1081.9843435999937,1082.0008939998224,1093.9845614999067,0,inactive,45.8,1093.9847644998226,1097.1355538999196,76.99999999999987,3.127,1094.017565799877,,,,,,,,,,,,,,,,,,,,,,,,,,,,,,,,,,1059.784543799935,1068.7009588999208,,,sub-069,45.8,43.7,46.2,COM3,2025-09-25_16h22.35.756,2024_RDpaindiscrimination_maintask,2023.2.3,59.99480439640916,2025-09-25 16h23.00.346088 -0400,
1,0,1,0,1,0,1,0,,,,,,,,,,,,,1097.1509730999824,,,,,,,,1097.1363968998194,1102.134541499894,1102.1345470999368,1102.1510514998809,1114.1348069999367,1,inactive,45.8,1114.1349447998218,1117.419685699977,76.99999999999987,3.265,1114.167849099962,,,,,,,,,,,,,,,,,,,,,,,,,,,,,,,,,,,,,,sub-069,45.8,43.7,46.2,COM3,2025-09-25_16h22.35.756,2024_RDpaindiscrimination_maintask,2023.2.3,59.99480439640916,2025-09-25 16h23.00.346088 -0400,
1,0,1,0,2,0,2,0,,,,,,,,,,,,,1117.4346298999153,,,,,,,,1117.420453300001,1122.4180741999298,1122.4180796998553,1122.434602699941,1134.418529599905,2,active,43.7,1134.4186680999119,1138.2027835999615,13.500000000000208,3.764,1134.4513819999993,,,,,,,,,,,,,,,,,,,,,,,,,,,,,,,,,,,,,,sub-069,45.8,43.7,46.2,COM3,2025-09-25_16h22.35.756,2024_RDpaindiscrimination_maintask,2023.2.3,59.99480439640916,2025-09-25 16h23.00.346088 -0400,
1,0,1,0,3,0,3,0,,,,,,,,,,,,,1138.2182520998176,,,,,,,,1138.2035418997984,1143.2016410999931,1143.2016468998045,1143.2181609999388,1155.201936099911,3,active,43.7,1155.2020746998023,1158.4537374998908,12.500000000000002,3.232,1155.234944399912,,,,,,,,,,,,,,,,,,,,,,,,,,,,,,,,,,,,,,sub-069,45.8,43.7,46.2,COM3,2025-09-25_16h22.35.756,2024_RDpaindiscrimination_maintask,2023.2.3,59.99480439640916,2025-09-25 16h23.00.346088 -0400,
1,0,1,0,4,0,4,0,,,,,,,,,,,,,1158.46836599987,,,,,,,,1158.4545056999195,1163.4518026998267,1163.4518084998708,1163.4683368999977,1175.4520849999972,0,inactive,45.8,1175.452234499855,1178.1362889998127,82.9999999999999,2.664,1175.4851610998157,,,,,,,,,,,,,,,,,,,,,,,,,,,,,,,,,,,,,,sub-069,45.8,43.7,46.2,COM3,2025-09-25_16h22.35.756,2024_RDpaindiscrimination_maintask,2023.2.3,59.99480439640916,2025-09-25 16h23.00.346088 -0400,
1,0,1,0,5,0,5,0,,,,,,,,,,,,,1178.1518817998003,,,,,,,,1178.1370792000089,1183.1353316998575,1183.1353376999032,1183.1518737999722,1195.1356999999844,1,active,43.7,1195.1358601998072,1196.8876143000089,38.50000000000004,1.732,1195.1687525999732,,,,,,,,,,,,,,,,,,,,,,,,,,,,,,,,,,,,,,sub-069,45.8,43.7,46.2,COM3,2025-09-25_16h22.35.756,2024_RDpaindiscrimination_maintask,2023.2.3,59.99480439640916,2025-09-25 16h23.00.346088 -0400,
1,0,1,0,6,0,6,0,,,,,,,,,,,,,1196.9020459000021,,,,,,,,1196.8883963997941,1201.8855492000002,1201.88555479981,1201.902131299954,1213.885841500014,2,active,43.7,1213.885976599995,1217.5715294999536,19.000000000000078,3.665,1213.9188609998673,,,,,,,,,,,,,,,,,,,,,,,,,,,,,,,,,,,,,,sub-069,45.8,43.7,46.2,COM3,2025-09-25_16h22.35.756,2024_RDpaindiscrimination_maintask,2023.2.3,59.99480439640916,2025-09-25 16h23.00.346088 -0400,
1,0,1,0,7,0,7,0,,,,,,,,,,,,,1217.5855684999842,,,,,,,,1217.5723399999551,1222.56910289987,1222.5691091998015,1222.5856184998993,1234.5693502000067,3,inactive,45.8,1234.569488799898,1238.0046761999838,86.99999999999989,3.416,1234.6023742000107,,,,,,,,,,,,,,,,,,,,,,,,,,,,,,,,,,,,,,sub-069,45.8,43.7,46.2,COM3,2025-09-25_16h22.35.756,2024_RDpaindiscrimination_maintask,2023.2.3,59.99480439640916,2025-09-25 16h23.00.346088 -0400,
1,0,1,0,8,0,8,0,,,,,,,,,,,,,1238.019161199918,,,,,,,,1238.0049606999382,1243.0027234998997,1243.0027312999591,1243.019141299883,1255.0029819000047,0,active,43.7,1255.0031317998655,1257.4211067999713,19.500000000000007,2.398,1255.036029699957,,,,,,,,,,,,,,,,,,,,,,,,,,,,,,,,,,,,,,sub-069,45.8,43.7,46.2,COM3,2025-09-25_16h22.35.756,2024_RDpaindiscrimination_maintask,2023.2.3,59.99480439640916,2025-09-25 16h23.00.346088 -0400,
1,0,1,0,9,0,9,0,,,,,,,,,,,,,1257.4361101998948,,,,,,,,1257.4218334998004,1262.4195895998273,1262.4195958999917,1262.4361492998432,1274.4199899998493,1,active,43.7,1274.420133800013,1277.4381946998183,21.50000000000017,2.997,1274.452857799828,,,,,,,,,,,,,,,,,,,,,,,,,,,,,,,,,,,,,,sub-069,45.8,43.7,46.2,COM3,2025-09-25_16h22.35.756,2024_RDpaindiscrimination_maintask,2023.2.3,59.99480439640916,2025-09-25 16h23.00.346088 -0400,
1,0,1,0,10,0,10,0,,,,,,,,,,,,,1277.4529781998135,,,,,,,,1277.4389541000128,1282.4365017998498,1282.4365092997905,1282.4530346998945,1294.436696199933,2,inactive,45.8,1294.4368348999415,1296.4548409997951,93.00000000000014,1.998,1294.4696877999231,,,,,,,,,,,,,,,,,,,,,,,,,,,,,,,,,,,,,,sub-069,45.8,43.7,46.2,COM3,2025-09-25_16h22.35.756,2024_RDpaindiscrimination_maintask,2023.2.3,59.99480439640916,2025-09-25 16h23.00.346088 -0400,
1,0,1,0,11,0,11,0,,,,,,,,,,,,,1296.4698516000062,,,,,,,,1296.4555948998313,1301.4533739998005,1301.4533794999588,1301.4699034998193,1313.4536552999634,3,inactive,45.8,1313.4537926998455,1315.138793299906,86.00000000000009,1.665,1313.4865939000156,,,,,,,,,,,,,,,,,,,,,,,,,,,,,,,,,,,,,,sub-069,45.8,43.7,46.2,COM3,2025-09-25_16h22.35.756,2024_RDpaindiscrimination_maintask,2023.2.3,59.99480439640916,2025-09-25 16h23.00.346088 -0400,
1,0,1,0,12,0,12,0,,,,,,,,,,,,,1315.153333599912,,,,,,,,1315.1395628999453,1320.1367793998215,1320.1367853998672,1320.1533366998192,1332.1370633998886,0,active,43.7,1332.1372000998817,1335.6721777999774,42.49999999999993,3.515,1332.1700943999458,,,,,,,,,,,,,,,,,,,,,,,,,,,,,,,,,,,,,,sub-069,45.8,43.7,46.2,COM3,2025-09-25_16h22.35.756,2024_RDpaindiscrimination_maintask,2023.2.3,59.99480439640916,2025-09-25 16h23.00.346088 -0400,
1,0,1,0,13,0,13,0,,,,,,,,,,,,,1335.6869295998476,,,,,,,,1335.6730196999852,1340.6704513998702,1340.6704572997987,1340.6869833997916,1352.6707501998171,1,inactive,45.8,1352.6708904998377,1356.6720608999021,86.49999999999989,3.981,1352.7036392998416,,,,,,,,,,,,,,,,,,,,,,,,,,,,,,,,,,,,,,sub-069,45.8,43.7,46.2,COM3,2025-09-25_16h22.35.756,2024_RDpaindiscrimination_maintask,2023.2.3,59.99480439640916,2025-09-25 16h23.00.346088 -0400,
1,0,1,0,14,0,14,0,,,,,,,,,,,,,1356.687033999944,,,,,,,,1356.672802099958,1361.670536799822,1361.6705424999818,1361.6870676998515,1373.670920799952,2,inactive,45.8,1373.6710631998722,1377.205866499804,87.99999999999994,3.515,1373.703984499909,,,,,,,,,,,,,,,,,,,,,,,,,,,,,,,,,,,,,,sub-069,45.8,43.7,46.2,COM3,2025-09-25_16h22.35.756,2024_RDpaindiscrimination_maintask,2023.2.3,59.99480439640916,2025-09-25 16h23.00.346088 -0400,
1,0,1,0,15,0,15,0,,,,,,,,,,,,,1377.220707200002,,,,,,,,1377.2066388998646,1382.2041662998963,1382.2041716999374,1382.2206456998829,1394.2044370998628,3,active,43.7,1394.2045770999976,1396.2728675999679,26.000000000000014,2.049,1394.2375017998274,,,,,,,,,,,,,,,,,,,,,,,,,,,,,,,,,,,,,,sub-069,45.8,43.7,46.2,COM3,2025-09-25_16h22.35.756,2024_RDpaindiscrimination_maintask,2023.2.3,59.99480439640916,2025-09-25 16h23.00.346088 -0400,
1,0,1,0,,,,,0,0,0,0,0,0,0,0,,,,,1401.4708940999117,,,,,,1401.1214325998444,1401.4544231998734,,,,,,0,active,45.8,1418.454718399793,1421.82261319994,75.49999999999989,3.348,,1396.2736742999405,1396.2875029998831,1401.1211295998655,1401.454717000015,1406.454350200016,1406.454356999835,1406.4708641998004,1418.487696699798,1418.4547108998522,,,,,,,,,,,,,,,,,,,,,,,,,,,,,sub-069,45.8,43.7,46.2,COM3,2025-09-25_16h22.35.756,2024_RDpaindiscrimination_maintask,2023.2.3,59.99480439640916,2025-09-25 16h23.00.346088 -0400,
1,0,1,0,,,,,0,0,0,0,1,0,1,0,,,,,1421.8378069999162,,,,,,,,,,,,,1,inactive,45.8,1438.8217522997875,1442.7409513997845,84.99999999999986,3.898,,,,,1421.823338399874,1426.8213031999767,1426.8213094999082,1426.8378639998846,1438.8545301000122,1438.8217450999655,,,,,,,,,,,,,,,,,,,,,,,,,,,,,sub-069,45.8,43.7,46.2,COM3,2025-09-25_16h22.35.756,2024_RDpaindiscrimination_maintask,2023.2.3,59.99480439640916,2025-09-25 16h23.00.346088 -0400,
1,0,1,0,,,,,0,0,0,0,,,,,0,0,0,0,1444.1212628998328,,,,,,,,,,,,,2,inactive,,,,,,,,,,,,,,,,1442.74146499997,1444.1048259998206,1444.1051275997888,1449.1048196000047,1449.1048265998252,1449.1213097998407,1457.1048527997918,1457.1048527997918,1460.0714300000109,1460.1047770997975,1460.1047770997975,1460.0882524999324,3.77,5.03,377,503,8,1.2,0.75,pic-absent,1,n,0.42905469983816147,None,,,,,sub-069,45.8,43.7,46.2,COM3,2025-09-25_16h22.35.756,2024_RDpaindiscrimination_maintask,2023.2.3,59.99480439640916,2025-09-25 16h23.00.346088 -0400,
1,0,1,0,,,,,0,0,0,0,,,,,1,0,1,0,1460.1047770997975,,,,,,,,,,,,,3,active,,,,,,,,,,,,,,,,,,1460.08879469987,1465.0882819998078,1465.0882878999691,1465.1048053000122,1473.0883658998646,1473.0883658998646,1476.0549273998477,1476.0883177998476,1476.0883177998476,1476.0717469998635,3.94,4.86,394,486,8,1.2,0.75,pic-present,1,n,0.49350199988111854,None,,,,,sub-069,45.8,43.7,46.2,COM3,2025-09-25_16h22.35.756,2024_RDpaindiscrimination_maintask,2023.2.3,59.99480439640916,2025-09-25 16h23.00.346088 -0400,
1,0,1,0,,,,,0,0,0,0,,,,,2,0,2,0,1476.0883177998476,,,,,,,,,,,,,0,inactive,,,,,,,,,,,,,,,,,,1476.0722282999195,1481.0718447999097,1481.071852199966,1481.0883036998566,1489.0718544998672,1489.0718544998672,1492.0384237999097,1492.0717583999503,1492.0717583999503,1492.0552669998724,3.95,4.85,395,484,8,1.2,0.75,pic-present,1,n,0.6275839000009,None,,,,,sub-069,45.8,43.7,46.2,COM3,2025-09-25_16h22.35.756,2024_RDpaindiscrimination_maintask,2023.2.3,59.99480439640916,2025-09-25 16h23.00.346088 -0400,
1,0,1,0,,,,,0,0,0,0,,,,,3,0,3,0,1492.0717583999503,,,,,,,,,,,,,1,active,,,,,,,,,,,,,,,,,,1492.0557459997945,1497.055310699856,1497.055317599792,1497.0718100999948,1505.0552234998904,1505.0552234998904,1508.0219346999656,1508.0553133999929,1508.0553133999929,1508.0388175998814,4.61,4.19,461,419,8,1.2,0.75,pic-absent,1,n,0.6066846000030637,None,,,,,sub-069,45.8,43.7,46.2,COM3,2025-09-25_16h22.35.756,2024_RDpaindiscrimination_maintask,2023.2.3,59.99480439640916,2025-09-25 16h23.00.346088 -0400,
1,0,1,0,,,,,1,0,1,0,0,0,0,0,,,,,1509.371941599995,,,,,,1508.0393536000047,1509.3555058999918,,,,,,2,inactive,45.8,1526.3557544997893,1529.9246155999135,78.49999999999986,3.548,,,,,1509.3557846997865,1514.3554864998441,1514.3554928998929,1514.3719863998704,1526.388803999871,1526.3557465998456,,,,,,,,,,,,,,,,,,,,,,,,,,,,,sub-069,45.8,43.7,46.2,COM3,2025-09-25_16h22.35.756,2024_RDpaindiscrimination_maintask,2023.2.3,59.99480439640916,2025-09-25 16h23.00.346088 -0400,
1,0,1,0,,,,,1,0,1,0,1,0,1,0,,,,,1529.9388516999315,,,,,,,,,,,,,3,active,45.8,1546.9226751998067,1549.6415843998548,82.0,2.699,,,,,1529.925362400012,1534.9223346000072,1534.9223402999341,1534.9388786999043,1546.955677599879,1546.9226683999877,,,,,,,,,,,,,,,,,,,,,,,,,,,,,sub-069,45.8,43.7,46.2,COM3,2025-09-25_16h22.35.756,2024_RDpaindiscrimination_maintask,2023.2.3,59.99480439640916,2025-09-25 16h23.00.346088 -0400,
1,0,1,0,,,,,1,0,1,0,,,,,0,0,0,0,1551.0723801997956,,,,,,,,,,,,,0,inactive,,,,,,,,,,,,,,,,1549.6421601998154,1551.0559334999416,1551.0562443998642,1556.0558909999672,1556.0558989997953,1556.0724329999648,1564.0558493998833,1564.0558493998833,1567.0225456999615,1567.0559015998151,1567.0559015998151,1567.0393758998252,4.61,4.19,461,419,8,1.2,0.75,pic-present,1,n,0.5224764999002218,None,,,,,sub-069,45.8,43.7,46.2,COM3,2025-09-25_16h22.35.756,2024_RDpaindiscrimination_maintask,2023.2.3,59.99480439640916,2025-09-25 16h23.00.346088 -0400,
1,0,1,0,,,,,1,0,1,0,,,,,1,0,1,0,1567.0559015998151,,,,,,,,,,,,,1,inactive,,,,,,,,,,,,,,,,,,1567.0399250998162,1572.0394299000036,1572.0394363999367,1572.055971799884,1580.0393796998542,1580.0393796998542,1583.0061277998611,1583.0394175997935,1583.0394175997935,1583.0229261999484,3.81,4.99,381,499,8,1.2,0.75,pic-absent,0,m,0.5588827000465244,None,,,,,sub-069,45.8,43.7,46.2,COM3,2025-09-25_16h22.35.756,2024_RDpaindiscrimination_maintask,2023.2.3,59.99480439640916,2025-09-25 16h23.00.346088 -0400,
1,0,1,0,,,,,1,0,1,0,,,,,2,0,2,0,1583.0394175997935,,,,,,,,,,,,,2,active,,,,,,,,,,,,,,,,,,1583.0233875999693,1588.022941999836,1588.0229485998861,1588.039468199946,1596.0228834999725,1596.0228834999725,1598.9895787998103,1599.022965400014,1599.022965400014,1599.0063951998018,3.88,4.92,388,492,8,1.2,0.75,pic-present,1,n,0.3793122998904437,None,,,,,sub-069,45.8,43.7,46.2,COM3,2025-09-25_16h22.35.756,2024_RDpaindiscrimination_maintask,2023.2.3,59.99480439640916,2025-09-25 16h23.00.346088 -0400,
1,0,1,0,,,,,1,0,1,0,,,,,3,0,3,0,1599.022965400014,,,,,,,,,,,,,3,inactive,,,,,,,,,,,,,,,,,,1599.0068488998804,1604.0064889998175,1604.0064949998632,1604.0229661997873,1612.006389999995,1612.006389999995,1614.9730916998815,1615.0064167999662,1615.0064167999662,1614.9898980997968,4.32,4.48,432,448,8,1.2,0.75,pic-present,1,n,0.6515744000207633,None,,,,,sub-069,45.8,43.7,46.2,COM3,2025-09-25_16h22.35.756,2024_RDpaindiscrimination_maintask,2023.2.3,59.99480439640916,2025-09-25 16h23.00.346088 -0400,
1,0,1,0,,,,,2,0,2,0,0,0,0,0,,,,,1616.1897642000113,,,,,,1614.9904205999337,1616.1733052998316,,,,,,0,inactive,45.8,1633.1733919999097,1636.6580337998457,76.4999999999998,3.464,,,,,1616.1735937998164,1621.173280299874,1621.173286799807,1621.189815599937,,1633.1733839998487,,,,,,,,,,,,,,,,,,,,,,,,,,,,,sub-069,45.8,43.7,46.2,COM3,2025-09-25_16h22.35.756,2024_RDpaindiscrimination_maintask,2023.2.3,59.99480439640916,2025-09-25 16h23.00.346088 -0400,
1,0,1,0,,,,,2,0,2,0,1,0,1,0,,,,,1636.6733744000085,,,,,,,,,,,,,1,active,45.8,1653.6571484999731,1656.3264177998062,74.99999999999984,2.649,,,,,1636.6587915997952,1641.6568263999652,1641.6568326000124,1641.6733602997847,1653.6901496998034,1653.6571415998042,,,,,,,,,,,,,,,,,,,,,,,,,,,,,sub-069,45.8,43.7,46.2,COM3,2025-09-25_16h22.35.756,2024_RDpaindiscrimination_maintask,2023.2.3,59.99480439640916,2025-09-25 16h23.00.346088 -0400,
1,0,1,0,,,,,2,0,2,0,,,,,0,0,0,0,1657.7235260999296,,,,,,,,,,,,,2,active,,,,,,,,,,,,,,,,1656.326945599867,1657.7070761998184,1657.7073862999678,1662.7070502999704,1662.7070563000161,1662.7235786998644,1670.707008499885,1670.707008499885,1673.673693999881,1673.7070762999356,1673.7070762999356,1673.6905265999958,3.6,5.2,360,520,8,1.2,0.75,pic-absent,1,n,0.527427599998191,None,,,,,sub-069,45.8,43.7,46.2,COM3,2025-09-25_16h22.35.756,2024_RDpaindiscrimination_maintask,2023.2.3,59.99480439640916,2025-09-25 16h23.00.346088 -0400,
1,0,1,0,,,,,2,0,2,0,,,,,1,0,1,0,1673.7070762999356,,,,,,,,,,,,,3,inactive,,,,,,,,,,,,,,,,,,1673.691089999862,1678.6906062997878,1678.6906129999552,1678.707075299928,1686.6905688999686,1686.6905688999686,1689.65719349985,1689.6905625998043,1689.6905625998043,1689.6740528999362,4.17,4.63,417,463,8,1.2,0.75,pic-present,1,n,0.4237903000321239,None,,,,,sub-069,45.8,43.7,46.2,COM3,2025-09-25_16h22.35.756,2024_RDpaindiscrimination_maintask,2023.2.3,59.99480439640916,2025-09-25 16h23.00.346088 -0400,
1,0,1,0,,,,,2,0,2,0,,,,,2,0,2,0,1689.6905625998043,,,,,,,,,,,,,0,active,,,,,,,,,,,,,,,,,,1689.6745297999587,1694.6740952997934,1694.6741022998467,1694.6905833999626,1702.6740776998922,1702.6740776998922,1705.6407742998563,1705.6741094000172,1705.6741094000172,1705.657588099828,3.8,5.0,380,500,8,1.2,0.75,pic-absent,1,n,0.6359697000589222,None,,,,,sub-069,45.8,43.7,46.2,COM3,2025-09-25_16h22.35.756,2024_RDpaindiscrimination_maintask,2023.2.3,59.99480439640916,2025-09-25 16h23.00.346088 -0400,
1,0,1,0,,,,,2,0,2,0,,,,,3,0,3,0,1705.6741094000172,,,,,,,,,,,,,1,inactive,,,,,,,,,,,,,,,,,,1705.6580794998445,1710.6576287997887,1710.6576348999515,1710.6741455998272,1718.657505699899,1718.657505699899,1721.6242305999622,1721.6575592998415,1721.6575592998415,1721.6410662999842,3.56,5.24,356,524,8,1.2,0.75,pic-absent,1,n,0.46014790004119277,None,,,,,sub-069,45.8,43.7,46.2,COM3,2025-09-25_16h22.35.756,2024_RDpaindiscrimination_maintask,2023.2.3,59.99480439640916,2025-09-25 16h23.00.346088 -0400,
1,0,1,0,,,,,3,0,3,0,0,0,0,0,,,,,1723.3576579999644,,,,,,1721.641576899914,1723.3435058000032,,,,,,2,active,45.8,1740.3413627999835,1743.4600438999478,82.49999999999986,3.098,,,,,1723.3438428000081,1728.3410685998388,1728.341074399883,1728.3576037997846,1740.374403799884,1740.3413551999256,,,,,,,,,,,,,,,,,,,,,,,,,,,,,sub-069,45.8,43.7,46.2,COM3,2025-09-25_16h22.35.756,2024_RDpaindiscrimination_maintask,2023.2.3,59.99480439640916,2025-09-25 16h23.00.346088 -0400,
1,0,1,0,,,,,3,0,3,0,1,0,1,0,,,,,1743.4745566998608,,,,,,,,,,,,,3,inactive,45.8,1760.4582380999345,1763.9928802999202,79.99999999999979,3.514,,,,,1743.4602961000055,1748.4579495999496,1748.4579562,1748.4744635999668,1760.491299299989,1760.4582306998782,,,,,,,,,,,,,,,,,,,,,,,,,,,,,sub-069,45.8,43.7,46.2,COM3,2025-09-25_16h22.35.756,2024_RDpaindiscrimination_maintask,2023.2.3,59.99480439640916,2025-09-25 16h23.00.346088 -0400,
1,0,1,0,,,,,3,0,3,0,,,,,0,0,0,0,1765.3413674999028,,,,,,,,,,,,,0,active,,,,,,,,,,,,,,,,1763.9933760999702,1765.324871899793,1765.3251659998205,1770.3248479999602,1770.3248542000074,1770.3413664000109,1778.3248307998292,1778.3248307998292,1781.2914787998889,1781.324810899794,1781.324810899794,1781.3082722998224,4.16,4.64,416,463,8,1.2,0.75,pic-present,1,n,0.392843599896878,None,,,,,sub-069,45.8,43.7,46.2,COM3,2025-09-25_16h22.35.756,2024_RDpaindiscrimination_maintask,2023.2.3,59.99480439640916,2025-09-25 16h23.00.346088 -0400,
1,0,1,0,,,,,3,0,3,0,,,,,1,0,1,0,1781.324810899794,,,,,,,,,,,,,1,active,,,,,,,,,,,,,,,,,,1781.3088471000083,1786.3083989999723,1786.3084056999069,1786.3249277998693,1794.3082885998301,1794.3082885998301,1797.275036699837,1797.308372600004,1797.308372600004,1797.2918871999718,4.36,4.44,436,444,8,1.2,0.75,pic-absent,0,m,0.8062509999144822,None,,,,,sub-069,45.8,43.7,46.2,COM3,2025-09-25_16h22.35.756,2024_RDpaindiscrimination_maintask,2023.2.3,59.99480439640916,2025-09-25 16h23.00.346088 -0400,
1,0,1,0,,,,,3,0,3,0,,,,,2,0,2,0,1797.308372600004,,,,,,,,,,,,,2,inactive,,,,,,,,,,,,,,,,,,1797.29238839983,1802.291780399857,1802.2917870997917,1802.3083052998409,1810.2918579999823,1810.2918579999823,1813.2584130999167,1813.2917560997885,1813.2917560997885,1813.2752865999937,3.91,4.89,391,488,8,1.2,0.75,pic-absent,0,m,1.0543225998990238,None,,,,,sub-069,45.8,43.7,46.2,COM3,2025-09-25_16h22.35.756,2024_RDpaindiscrimination_maintask,2023.2.3,59.99480439640916,2025-09-25 16h23.00.346088 -0400,
1,0,1,0,,,,,3,0,3,0,,,,,3,0,3,0,1813.2917560997885,,,,,,,,,,,,,3,active,,,,,,,,,,,,,,,,,,1813.275747000007,1818.2753680997994,1818.2753746998496,1818.292009399971,1826.2752219999675,1826.2752219999675,1829.2419245999772,1829.2752594999038,1829.2752594999038,1829.2587495998014,4.23,4.57,423,457,8,1.2,0.75,pic-present,1,n,0.8264510999433696,None,,,,,sub-069,45.8,43.7,46.2,COM3,2025-09-25_16h22.35.756,2024_RDpaindiscrimination_maintask,2023.2.3,59.99480439640916,2025-09-25 16h23.00.346088 -0400,
,,,,,,,,,,,,,,,,,,,,,,,,,,,,,,,,,,,,,,,,,,,,,,,,,,,,,,,,,,,,,,,,,,,,,,,,,,1829.2591856999788,1830.8756818999536,1830.8757040000055,1840.8755818000063,,,,,,,,,,,
