trials.thisRepN,trials.thisTrialN,trials.thisN,trials.thisIndex,loop_test.thisRepN,loop_test.thisTrialN,loop_test.thisN,loop_test.thisIndex,loop_eval_discri.thisRepN,loop_eval_discri.thisTrialN,loop_eval_discri.thisN,loop_eval_discri.thisIndex,loop_eval.thisRepN,loop_eval.thisTrialN,loop_eval.thisN,loop_eval.thisIndex,loop_discri.thisRepN,loop_discri.thisTrialN,loop_discri.thisN,loop_discri.thisIndex,thisRow.t,notes,Set_up.started,Set_up.stopped,electrode_check.started,electrode_check.stopped,instructions_eval.started,instructions_eval.stopped,pause_5_test.started,pause_5_test.stopped,Phase_Test.started,thermode_locali.started,Phase_Test.stopped,loca_thermode,condition,temp_trial_sent,eval_douleur.started,eval_douleur.stopped,ratingScale.response,ratingScale.rt,thermode_locali.stopped,Fin_test.started,text.started,Fin_test.stopped,pause_5_EVA.started,pause_5_EVA.stopped,tâche_EVA.started,thermode_locali_EVA.started,thermode_locali_EVA.stopped,tâche_EVA.stopped,instructions_discrim.started,instructions_discrim.stopped,pause_5_pic.started,pause_5_pic.stopped,tâche_PIC.started,thermode_locali_pic.started,percu_or.started,responser.started,thermode_locali_pic.stopped,percu_or.stopped,responser.stopped,tâche_PIC.stopped,dur_plateau1,dur_plateau2,dur_plateau1_sent,dur_plateau2_sent,start_plateau_2_resp,dur_pic,dur_rise,pic_presence,pic_response,discrimin_resp.keys,discrimin_resp.rt,discrimin_resp.duration,break_entre_bloc.started,break_entre_bloc.stopped,merci.started,merci.stopped,participant,temp_flat,temp_active,temp_pic_set,com_thermode,date,expName,psychopyVersion,frameRate,expStart,
0,0,0,0,0,0,0,0,,,,,,,,,,,,,264.9471877999604,,0.011133499909192324,261.9475442999974,261.9479636999313,262.68067309993785,262.68068089999724,264.9141688999953,264.9144611998927,269.93068009999115,269.93068599991966,269.9473300999962,281.93078949989285,0,inactive,47.0,281.9309984999709,287.1332903999137,68.9999999999999,5.178,,,,,,,,,,,,,,,,,,,,,,,,,,,,,,,,,,,,,,,sub-067,47.0,45.5,47.5,COM3,2025-09-19_14h41.30.457,2024_RDpaindiscrimination_maintask,2023.2.3,59.99444450007418,2025-09-19 14h41.53.170932 -0400,
0,0,0,0,1,0,1,0,,,,,,,,,,,,,287.1475562999258,,,,,,,,287.1341841999674,292.1310398998903,292.13104759994894,292.1475632999791,304.13133729994297,1,active,45.5,304.1314719999209,309.94954770000186,13.500000000000075,5.797,304.16434069990646,,,,,,,,,,,,,,,,,,,,,,,,,,,,,,,,,,,,,,sub-067,47.0,45.5,47.5,COM3,2025-09-19_14h41.30.457,2024_RDpaindiscrimination_maintask,2023.2.3,59.99444450007418,2025-09-19 14h41.53.170932 -0400,
0,0,0,0,2,0,2,0,,,,,,,,,,,,,309.9644100998994,,,,,,,,309.95031709992327,314.9479248999851,314.9479328999296,314.9644459999399,326.94812059996184,2,inactive,47.0,326.9482565999497,332.499706099974,62.49999999999996,5.532,326.98111799999606,,,,,,,,,,,,,,,,,,,,,,,,,,,,,,,,,,,,,,sub-067,47.0,45.5,47.5,COM3,2025-09-19_14h41.30.457,2024_RDpaindiscrimination_maintask,2023.2.3,59.99444450007418,2025-09-19 14h41.53.170932 -0400,
0,0,0,0,3,0,3,0,,,,,,,,,,,,,332.51454799994826,,,,,,,,332.5004514999455,337.49813859991264,337.49814429995604,337.5145991999889,349.49846919998527,3,active,45.5,349.49860589997843,353.5675176999066,37.99999999999994,4.048,349.5315107998904,,,,,,,,,,,,,,,,,,,,,,,,,,,,,,,,,,,,,,sub-067,47.0,45.5,47.5,COM3,2025-09-19_14h41.30.457,2024_RDpaindiscrimination_maintask,2023.2.3,59.99444450007418,2025-09-19 14h41.53.170932 -0400,
0,0,0,0,4,0,4,0,,,,,,,,,,,,,353.58150430000387,,,,,,,,353.5682531999191,358.5649242999498,358.56493009999394,358.5814582000021,370.5653720999835,0,inactive,47.0,370.5655070999637,375.70079039991833,67.99999999999983,5.115,370.59838049998507,,,,,,,,,,,,,,,,,,,,,,,,,,,,,,,,,,,,,,sub-067,47.0,45.5,47.5,COM3,2025-09-19_14h41.30.457,2024_RDpaindiscrimination_maintask,2023.2.3,59.99444450007418,2025-09-19 14h41.53.170932 -0400,
0,0,0,0,5,0,5,0,,,,,,,,,,,,,375.7149663999444,,,,,,,,375.70157689996995,380.6984968999168,380.6985040999716,380.7150291999569,392.6987988000037,1,inactive,47.0,392.6989360000007,396.4343939999817,76.99999999999987,3.716,392.7318148999475,,,,,,,,,,,,,,,,,,,,,,,,,,,,,,,,,,,,,,sub-067,47.0,45.5,47.5,COM3,2025-09-19_14h41.30.457,2024_RDpaindiscrimination_maintask,2023.2.3,59.99444450007418,2025-09-19 14h41.53.170932 -0400,
0,0,0,0,6,0,6,0,,,,,,,,,,,,,396.4485265999101,,,,,,,,396.4351483999053,401.4320741998963,401.43208029994275,401.44858629989903,413.43235559994355,2,active,45.5,413.43249579996336,417.7179670999758,23.499999999999996,4.264,413.46540499990806,,,,,,,,,,,,,,,,,,,,,,,,,,,,,,,,,,,,,,sub-067,47.0,45.5,47.5,COM3,2025-09-19_14h41.30.457,2024_RDpaindiscrimination_maintask,2023.2.3,59.99444450007418,2025-09-19 14h41.53.170932 -0400,
0,0,0,0,7,0,7,0,,,,,,,,,,,,,417.7321211999515,,,,,,,,417.7187346999999,422.7156107999617,422.71561689989176,422.73213639995083,434.71589609992225,3,inactive,47.0,434.7160384999588,439.31797370000277,55.99999999999987,4.582,434.7490103999153,,,,,,,,,,,,,,,,,,,,,,,,,,,,,,,,,,,,,,sub-067,47.0,45.5,47.5,COM3,2025-09-19_14h41.30.457,2024_RDpaindiscrimination_maintask,2023.2.3,59.99444450007418,2025-09-19 14h41.53.170932 -0400,
0,0,0,0,8,0,8,0,,,,,,,,,,,,,439.3323980999412,,,,,,,,439.31875709991436,444.31585729995277,444.31586539989803,444.33237179997377,456.3161552998936,0,active,45.5,456.3162905999925,461.8520496999845,32.500000000000036,5.515,456.34916909993626,,,,,,,,,,,,,,,,,,,,,,,,,,,,,,,,,,,,,,sub-067,47.0,45.5,47.5,COM3,2025-09-19_14h41.30.457,2024_RDpaindiscrimination_maintask,2023.2.3,59.99444450007418,2025-09-19 14h41.53.170932 -0400,
0,0,0,0,9,0,9,0,,,,,,,,,,,,,461.8658579000039,,,,,,,,461.8528271999676,466.8494158999529,466.8494217999978,466.86591469997074,478.8498139999574,1,active,45.5,478.84995489998255,483.0014444999397,17.50000000000014,4.13,478.8827736999374,,,,,,,,,,,,,,,,,,,,,,,,,,,,,,,,,,,,,,sub-067,47.0,45.5,47.5,COM3,2025-09-19_14h41.30.457,2024_RDpaindiscrimination_maintask,2023.2.3,59.99444450007418,2025-09-19 14h41.53.170932 -0400,
0,0,0,0,10,0,10,0,,,,,,,,,,,,,483.0161532999482,,,,,,,,483.0021926999325,487.99970019992907,487.9997065999778,488.0161858999636,499.9999425999122,2,inactive,47.0,500.0000769000035,506.2523118999088,70.49999999999983,6.232,500.032957599964,,,,,,,,,,,,,,,,,,,,,,,,,,,,,,,,,,,,,,sub-067,47.0,45.5,47.5,COM3,2025-09-19_14h41.30.457,2024_RDpaindiscrimination_maintask,2023.2.3,59.99444450007418,2025-09-19 14h41.53.170932 -0400,
0,0,0,0,11,0,11,0,,,,,,,,,,,,,506.266387199983,,,,,,,,506.2525406999048,511.2499189999653,511.2499251998961,511.2664508000016,523.2502231999533,3,inactive,47.0,523.2503585999366,528.0521269999444,57.49999999999987,4.732,523.3332464999985,,,,,,,,,,,,,,,,,,,,,,,,,,,,,,,,,,,,,,sub-067,47.0,45.5,47.5,COM3,2025-09-19_14h41.30.457,2024_RDpaindiscrimination_maintask,2023.2.3,59.99444450007418,2025-09-19 14h41.53.170932 -0400,
0,0,0,0,12,0,12,0,,,,,,,,,,,,,528.0666131000035,,,,,,,,528.0528973999899,533.0501760999905,533.0501821999205,533.0666587000014,545.0505184999201,0,active,45.5,545.0506692999043,549.7534310999326,40.00000000000001,4.682,545.0835025999695,,,,,,,,,,,,,,,,,,,,,,,,,,,,,,,,,,,,,,sub-067,47.0,45.5,47.5,COM3,2025-09-19_14h41.30.457,2024_RDpaindiscrimination_maintask,2023.2.3,59.99444450007418,2025-09-19 14h41.53.170932 -0400,
0,0,0,0,13,0,13,0,,,,,,,,,,,,,549.7668446999742,,,,,,,,549.7541934999172,554.7503462999593,554.7503525998909,554.7669202999678,566.7506409999914,1,inactive,47.0,566.7507853999268,572.2033706998918,72.49999999999983,5.433,566.7836690999102,,,,,,,,,,,,,,,,,,,,,,,,,,,,,,,,,,,,,,sub-067,47.0,45.5,47.5,COM3,2025-09-19_14h41.30.457,2024_RDpaindiscrimination_maintask,2023.2.3,59.99444450007418,2025-09-19 14h41.53.170932 -0400,
0,0,0,0,14,0,14,0,,,,,,,,,,,,,572.2170543998946,,,,,,,,572.2041235999204,577.2005767999217,577.2005826999666,577.2171086999588,589.2009250998963,2,active,45.5,589.2010603999952,593.753238299978,41.49999999999992,4.532,589.2339477998903,,,,,,,,,,,,,,,,,,,,,,,,,,,,,,,,,,,,,,sub-067,47.0,45.5,47.5,COM3,2025-09-19_14h41.30.457,2024_RDpaindiscrimination_maintask,2023.2.3,59.99444450007418,2025-09-19 14h41.53.170932 -0400,
0,0,0,0,15,0,15,0,,,,,,,,,,,,,593.7673126999289,,,,,,,,593.7539936999092,598.7508646999486,598.7508705999935,598.7673402999062,610.7510972999735,3,active,45.5,610.751235099975,616.152567199897,13.999999999999995,5.381,610.7841430999106,,,,,,,,,,,,,,,,,,,,,,,,,,,,,,,,,,,,,,sub-067,47.0,45.5,47.5,COM3,2025-09-19_14h41.30.457,2024_RDpaindiscrimination_maintask,2023.2.3,59.99444450007418,2025-09-19 14h41.53.170932 -0400,
0,0,0,0,,,,,0,0,0,0,0,0,0,0,,,,,649.1845671999035,,,,,,648.6186698999954,649.1681484999135,,,,,,0,active,47.0,666.1684351000004,671.2872474999167,73.50000000000003,5.1,,616.1531284999801,616.1675998999272,648.6182921999134,649.1684093999211,654.1680514999898,654.1680576999206,654.1845855999272,666.201437599957,666.1684271999402,,,,,,,,,,,,,,,,,,,,,,,,,,,,,sub-067,47.0,45.5,47.5,COM3,2025-09-19_14h41.30.457,2024_RDpaindiscrimination_maintask,2023.2.3,59.99444450007418,2025-09-19 14h41.53.170932 -0400,
0,0,0,0,,,,,0,0,0,0,1,0,1,0,,,,,671.3014712999575,,,,,,,,,,,,,1,inactive,47.0,688.2852542999899,691.6877332999138,77.49999999999994,3.382,,,,,671.2879518999252,676.28505029995,676.2850681999698,676.301575499936,688.3183226999827,688.2852468999336,,,,,,,,,,,,,,,,,,,,,,,,,,,,,sub-067,47.0,45.5,47.5,COM3,2025-09-19_14h41.30.457,2024_RDpaindiscrimination_maintask,2023.2.3,59.99444450007418,2025-09-19 14h41.53.170932 -0400,
0,0,0,0,,,,,0,0,0,0,,,,,0,0,0,0,695.4018156999955,,,,,,,,,,,,,2,inactive,,,,,,,,,,,,,,,,691.6882608999731,695.3853649999946,695.3856909999158,700.38535519992,700.3853625999764,700.4018411999568,708.3852834999561,708.3852834999561,711.3519990999484,711.3853170999791,711.3853170999791,711.368813799927,3.31,5.49,331,549,8,1.2,0.75,pic-present,1,n,2.0863483999855816,None,,,,,sub-067,47.0,45.5,47.5,COM3,2025-09-19_14h41.30.457,2024_RDpaindiscrimination_maintask,2023.2.3,59.99444450007418,2025-09-19 14h41.53.170932 -0400,
0,0,0,0,,,,,0,0,0,0,,,,,1,0,1,0,711.3853170999791,,,,,,,,,,,,,3,inactive,,,,,,,,,,,,,,,,,,711.3694244999206,716.3688451999333,716.368851999985,716.3853720999323,724.3687892999733,724.3687892999733,727.335441299947,727.368738799938,727.368738799938,727.3522379999049,4.11,4.69,411,469,8,1.2,0.75,pic-present,1,n,1.1598348000552505,None,,,,,sub-067,47.0,45.5,47.5,COM3,2025-09-19_14h41.30.457,2024_RDpaindiscrimination_maintask,2023.2.3,59.99444450007418,2025-09-19 14h41.53.170932 -0400,
0,0,0,0,,,,,0,0,0,0,,,,,2,0,2,0,727.368738799938,,,,,,,,,,,,,0,active,,,,,,,,,,,,,,,,,,727.3527535999892,732.3523470999207,732.3523537999718,732.3688787999563,740.3522977998946,740.3522977998946,743.318983099889,743.3522848999128,743.3522848999128,743.3358427999774,3.56,5.24,356,524,8,1.2,0.75,pic-absent,1,n,1.900360699975863,None,,,,,sub-067,47.0,45.5,47.5,COM3,2025-09-19_14h41.30.457,2024_RDpaindiscrimination_maintask,2023.2.3,59.99444450007418,2025-09-19 14h41.53.170932 -0400,
0,0,0,0,,,,,0,0,0,0,,,,,3,0,3,0,743.3522848999128,,,,,,,,,,,,,1,active,,,,,,,,,,,,,,,,,,743.3363105999306,748.3358499999158,748.3358573999722,748.3523817999521,756.3357946999604,756.3357946999604,759.3024881999008,759.3358362999279,759.3358362999279,759.3193259999389,3.97,4.83,397,483,8,1.2,0.75,pic-present,1,n,1.284853499964811,None,,,,,sub-067,47.0,45.5,47.5,COM3,2025-09-19_14h41.30.457,2024_RDpaindiscrimination_maintask,2023.2.3,59.99444450007418,2025-09-19 14h41.53.170932 -0400,
0,0,0,0,,,,,1,0,1,0,0,0,0,0,,,,,762.0691486999858,,,,,,759.3197968999157,762.0526401998941,,,,,,2,inactive,47.0,779.0527476998977,781.604461299954,63.499999999999986,2.531,,,,,762.0529438999947,767.0526821999811,767.0526886999141,767.0692541999742,,779.0527399999555,,,,,,,,,,,,,,,,,,,,,,,,,,,,,sub-067,47.0,45.5,47.5,COM3,2025-09-19_14h41.30.457,2024_RDpaindiscrimination_maintask,2023.2.3,59.99444450007418,2025-09-19 14h41.53.170932 -0400,
0,0,0,0,,,,,1,0,1,0,1,0,1,0,,,,,781.6193967999425,,,,,,,,,,,,,3,active,47.0,798.6032720999792,802.5713560999138,29.000000000000075,3.948,,,,,781.6051994999871,786.6029285999248,786.6029356999788,786.6194583999459,798.6362392998999,798.6032647999236,,,,,,,,,,,,,,,,,,,,,,,,,,,,,sub-067,47.0,45.5,47.5,COM3,2025-09-19_14h41.30.457,2024_RDpaindiscrimination_maintask,2023.2.3,59.99444450007418,2025-09-19 14h41.53.170932 -0400,
0,0,0,0,,,,,1,0,1,0,,,,,0,0,0,0,803.8696387999225,,,,,,,,,,,,,0,inactive,,,,,,,,,,,,,,,,802.5718708999921,803.8532463999,803.85356399999,808.8531649999786,808.8531710999086,808.8696902999654,816.8531123999273,816.8531123999273,819.8197022998938,819.8530769998906,819.8530769998906,819.8365977999056,4.47,4.33,447,433,8,1.2,0.75,pic-absent,0,m,1.3030385000165552,None,,,,,sub-067,47.0,45.5,47.5,COM3,2025-09-19_14h41.30.457,2024_RDpaindiscrimination_maintask,2023.2.3,59.99444450007418,2025-09-19 14h41.53.170932 -0400,
0,0,0,0,,,,,1,0,1,0,,,,,1,0,1,0,819.8530769998906,,,,,,,,,,,,,1,active,,,,,,,,,,,,,,,,,,819.8372548999032,824.8366688999813,824.8366752999136,824.8531949999742,832.8366134999087,832.8366134999087,835.8033045999473,835.8366445999127,835.8366445999127,835.8201155998977,3.64,5.16,364,516,8,1.2,0.75,pic-absent,1,n,1.6676726000150666,None,,,,,sub-067,47.0,45.5,47.5,COM3,2025-09-19_14h41.30.457,2024_RDpaindiscrimination_maintask,2023.2.3,59.99444450007418,2025-09-19 14h41.53.170932 -0400,
0,0,0,0,,,,,1,0,1,0,,,,,2,0,2,0,835.8366445999127,,,,,,,,,,,,,2,active,,,,,,,,,,,,,,,,,,835.8205877,840.8200743999332,840.820081599988,840.8365823999047,848.8201112999814,848.8201112999814,851.7867387000006,851.8200249999063,851.8200249999063,851.8035247999942,3.33,5.47,333,547,8,1.2,0.75,pic-present,1,n,1.1314202999928966,None,,,,,sub-067,47.0,45.5,47.5,COM3,2025-09-19_14h41.30.457,2024_RDpaindiscrimination_maintask,2023.2.3,59.99444450007418,2025-09-19 14h41.53.170932 -0400,
0,0,0,0,,,,,1,0,1,0,,,,,3,0,3,0,851.8200249999063,,,,,,,,,,,,,3,inactive,,,,,,,,,,,,,,,,,,851.8039673999883,856.8035828999709,856.8035894999048,856.8200774999568,864.8036176000023,864.8036176000023,867.7703219999094,867.8035926999291,867.8035926999291,867.7871325999731,4.65,4.15,465,415,8,1.2,0.75,pic-present,1,n,1.1917938999831676,None,,,,,sub-067,47.0,45.5,47.5,COM3,2025-09-19_14h41.30.457,2024_RDpaindiscrimination_maintask,2023.2.3,59.99444450007418,2025-09-19 14h41.53.170932 -0400,
0,0,0,0,,,,,2,0,2,0,0,0,0,0,,,,,869.1368887999561,,,,,,867.787633299944,869.1204358999385,,,,,,0,active,47.0,886.1205558999209,889.855281499913,62.49999999999999,3.715,,,,,869.1207354998915,874.1203991998918,874.1204058999429,874.1370088999392,,886.1205475999741,,,,,,,,,,,,,,,,,,,,,,,,,,,,,sub-067,47.0,45.5,47.5,COM3,2025-09-19_14h41.30.457,2024_RDpaindiscrimination_maintask,2023.2.3,59.99444450007418,2025-09-19 14h41.53.170932 -0400,
0,0,0,0,,,,,2,0,2,0,1,0,1,0,,,,,889.870453499956,,,,,,,,,,,,,1,inactive,47.0,906.8543878999772,910.9223861999344,47.000000000000114,4.048,,,,,889.8560518999584,894.8539792998927,894.8539861999452,894.8704911998939,906.887370799901,906.8543779999018,,,,,,,,,,,,,,,,,,,,,,,,,,,,,sub-067,47.0,45.5,47.5,COM3,2025-09-19_14h41.30.457,2024_RDpaindiscrimination_maintask,2023.2.3,59.99444450007418,2025-09-19 14h41.53.170932 -0400,
0,0,0,0,,,,,2,0,2,0,,,,,0,0,0,0,912.1540446999716,,,,,,,,,,,,,2,active,,,,,,,,,,,,,,,,910.9228760999395,912.1376722999848,912.1379638999933,917.1375626999652,917.1375696999021,917.1540985999163,925.13751089992,925.13751089992,928.1042054999853,928.1375370000023,928.1375370000023,928.1210804999573,4.71,4.09,471,409,8,1.2,0.75,pic-absent,0,m,1.3115662999916822,None,,,,,sub-067,47.0,45.5,47.5,COM3,2025-09-19_14h41.30.457,2024_RDpaindiscrimination_maintask,2023.2.3,59.99444450007418,2025-09-19 14h41.53.170932 -0400,
0,0,0,0,,,,,2,0,2,0,,,,,1,0,1,0,928.1375370000023,,,,,,,,,,,,,3,active,,,,,,,,,,,,,,,,,,928.1216285999399,933.1210556000005,933.1210618999321,933.1375646999804,941.1210996999871,941.1210996999871,944.0877223999705,944.1210539999884,944.1210539999884,944.1045214999467,3.99,4.81,399,480,8,1.2,0.75,pic-present,1,n,1.386798300081864,None,,,,,sub-067,47.0,45.5,47.5,COM3,2025-09-19_14h41.30.457,2024_RDpaindiscrimination_maintask,2023.2.3,59.99444450007418,2025-09-19 14h41.53.170932 -0400,
0,0,0,0,,,,,2,0,2,0,,,,,2,0,2,0,944.1210539999884,,,,,,,,,,,,,0,inactive,,,,,,,,,,,,,,,,,,944.1049583998974,949.1046194999944,949.1046258999268,949.1211007999955,957.1046149999602,957.1046149999602,960.0711452999385,960.1045060999459,960.1045060999459,960.0880183998961,4.38,4.42,438,442,8,1.2,0.75,pic-absent,0,m,1.2039997999090701,None,,,,,sub-067,47.0,45.5,47.5,COM3,2025-09-19_14h41.30.457,2024_RDpaindiscrimination_maintask,2023.2.3,59.99444450007418,2025-09-19 14h41.53.170932 -0400,
0,0,0,0,,,,,2,0,2,0,,,,,3,0,3,0,960.1045060999459,,,,,,,,,,,,,1,active,,,,,,,,,,,,,,,,,,960.0884539999533,965.0880079999333,965.0880147999851,965.1045649999287,973.0879762999248,973.0879762999248,976.0547191998921,976.0880493998993,976.0880493998993,976.0715354999993,3.27,5.53,327,553,8,1.2,0.75,pic-absent,0,m,1.0876279999502003,None,,,,,sub-067,47.0,45.5,47.5,COM3,2025-09-19_14h41.30.457,2024_RDpaindiscrimination_maintask,2023.2.3,59.99444450007418,2025-09-19 14h41.53.170932 -0400,
0,0,0,0,,,,,3,0,3,0,0,0,0,0,,,,,977.2380268999841,,,,,,976.0720555000007,977.2216085999971,,,,,,2,inactive,47.0,994.2218852998922,997.1063140999759,60.0,2.864,,,,,977.2219021999044,982.2215593999717,982.2215656999033,982.2381468999665,994.2548955999082,994.2218773999484,,,,,,,,,,,,,,,,,,,,,,,,,,,,,sub-067,47.0,45.5,47.5,COM3,2025-09-19_14h41.30.457,2024_RDpaindiscrimination_maintask,2023.2.3,59.99444450007418,2025-09-19 14h41.53.170932 -0400,
0,0,0,0,,,,,3,0,3,0,1,0,1,0,,,,,997.121584199951,,,,,,,,,,,,,3,active,47.0,1014.105425399961,1017.5564118999755,46.500000000000014,3.43,,,,,997.1070526998956,1002.1051062999759,1002.1051128999097,1002.1216302999528,1014.1384265999077,1014.1054177999031,,,,,,,,,,,,,,,,,,,,,,,,,,,,,sub-067,47.0,45.5,47.5,COM3,2025-09-19_14h41.30.457,2024_RDpaindiscrimination_maintask,2023.2.3,59.99444450007418,2025-09-19 14h41.53.170932 -0400,
0,0,0,0,,,,,3,0,3,0,,,,,0,0,0,0,1018.7884743999457,,,,,,,,,,,,,0,active,,,,,,,,,,,,,,,,1017.5569504000014,1018.7720902999863,1018.7724045999348,1023.7720011998899,1023.7720099999569,1023.7885195999406,1031.7719312999398,1031.7719312999398,1034.7386428999016,1034.771971299895,1034.771971299895,1034.7554953999352,3.46,5.34,346,534,8,1.2,0.75,pic-present,1,n,1.196119499974884,None,,,,,sub-067,47.0,45.5,47.5,COM3,2025-09-19_14h41.30.457,2024_RDpaindiscrimination_maintask,2023.2.3,59.99444450007418,2025-09-19 14h41.53.170932 -0400,
0,0,0,0,,,,,3,0,3,0,,,,,1,0,1,0,1034.771971299895,,,,,,,,,,,,,1,inactive,,,,,,,,,,,,,,,,,,1034.756037299987,1039.7555357998936,1039.7555421999423,1039.7720632998971,1047.7554844999686,1047.7554844999686,1050.722181799938,1050.7555070999078,1050.7555070999078,1050.7389978999272,4.44,4.36,444,436,8,1.2,0.75,pic-absent,0,m,1.0413531000958756,None,,,,,sub-067,47.0,45.5,47.5,COM3,2025-09-19_14h41.30.457,2024_RDpaindiscrimination_maintask,2023.2.3,59.99444450007418,2025-09-19 14h41.53.170932 -0400,
0,0,0,0,,,,,3,0,3,0,,,,,2,0,2,0,1050.7555070999078,,,,,,,,,,,,,2,inactive,,,,,,,,,,,,,,,,,,1050.739465199993,1055.7391518999357,1055.7391590999905,1055.7556847999804,1063.7389852999477,1063.7389852999477,1066.7056933999993,1066.7390207999852,1066.7390207999852,1066.7225276998943,4.09,4.71,409,471,8,1.2,0.75,pic-present,1,n,1.0725224999478087,None,,,,,sub-067,47.0,45.5,47.5,COM3,2025-09-19_14h41.30.457,2024_RDpaindiscrimination_maintask,2023.2.3,59.99444450007418,2025-09-19 14h41.53.170932 -0400,
0,0,0,0,,,,,3,0,3,0,,,,,3,0,3,0,1066.7390207999852,,,,,,,,,,,,,3,inactive,,,,,,,,,,,,,,,,,,1066.7230093999533,1071.7225228999741,1071.7225301999133,1071.7390661999816,1079.7224914999679,1079.7224914999679,1082.6891942999791,1082.7224526999053,1082.7224526999053,1082.7060162998969,4.15,4.65,415,465,8,1.2,0.75,pic-absent,0,m,1.189397000009194,None,,,,,sub-067,47.0,45.5,47.5,COM3,2025-09-19_14h41.30.457,2024_RDpaindiscrimination_maintask,2023.2.3,59.99444450007418,2025-09-19 14h41.53.170932 -0400,
1,0,1,0,0,0,0,0,,,,,,,,,,,,,1104.4894234999083,,,,1091.139663699898,1103.9729802999645,1103.9729884999106,1104.4730377999367,1104.4733413999202,1109.4728807999054,1109.4728870999534,1109.4894377999008,1121.4732447999995,0,active,45.5,1121.473442699993,1126.8244107998908,0.0,5.327,1121.5062053999864,,,,,,,,,,,,,,,,,,,,,,,,,,,,,,,,,,1082.7064607999055,1091.139536499977,,,sub-067,47.0,45.5,47.5,COM3,2025-09-19_14h41.30.457,2024_RDpaindiscrimination_maintask,2023.2.3,59.99444450007418,2025-09-19 14h41.53.170932 -0400,
1,0,1,0,1,0,1,0,,,,,,,,,,,,,1126.8396527000004,,,,,,,,1126.8246944999555,1131.823156700004,1131.8231625999324,1131.839678899967,1143.8235020999564,1,inactive,47.0,1143.823638199945,1147.4915601999965,57.000000000000085,3.647,1143.85648019996,,,,,,,,,,,,,,,,,,,,,,,,,,,,,,,,,,,,,,sub-067,47.0,45.5,47.5,COM3,2025-09-19_14h41.30.457,2024_RDpaindiscrimination_maintask,2023.2.3,59.99444450007418,2025-09-19 14h41.53.170932 -0400,
1,0,1,0,2,0,2,0,,,,,,,,,,,,,1147.5066646999912,,,,,,,,1147.4923039999558,1152.4900510999141,1152.4900575999636,1152.5066142999567,1164.4903760999441,2,inactive,47.0,1164.490510399919,1168.3748175998917,54.00000000000006,3.864,1164.523366099922,,,,,,,,,,,,,,,,,,,,,,,,,,,,,,,,,,,,,,sub-067,47.0,45.5,47.5,COM3,2025-09-19_14h41.30.457,2024_RDpaindiscrimination_maintask,2023.2.3,59.99444450007418,2025-09-19 14h41.53.170932 -0400,
1,0,1,0,3,0,3,0,,,,,,,,,,,,,1168.3901169999735,,,,,,,,1168.3758231999818,1173.373627099907,1173.3736332999542,1173.3901140999515,1185.3739183999132,3,active,45.5,1185.3740686998935,1190.2261373999063,4.000000000000058,4.832,1185.4069514999865,,,,,,,,,,,,,,,,,,,,,,,,,,,,,,,,,,,,,,sub-067,47.0,45.5,47.5,COM3,2025-09-19_14h41.30.457,2024_RDpaindiscrimination_maintask,2023.2.3,59.99444450007418,2025-09-19 14h41.53.170932 -0400,
1,0,1,0,4,0,4,0,,,,,,,,,,,,,1190.2403370999964,,,,,,,,1190.226897799992,1195.22382929991,1195.2238369999686,1195.2403532000026,1207.2241901999805,0,inactive,47.0,1207.2243365999311,1211.5601130999858,73.99999999999984,4.315,1207.2571993999882,,,,,,,,,,,,,,,,,,,,,,,,,,,,,,,,,,,,,,sub-067,47.0,45.5,47.5,COM3,2025-09-19_14h41.30.457,2024_RDpaindiscrimination_maintask,2023.2.3,59.99444450007418,2025-09-19 14h41.53.170932 -0400,
1,0,1,0,5,0,5,0,,,,,,,,,,,,,1211.57390269998,,,,,,,,1211.560850599897,1216.5574250998907,1216.5574314999394,1216.5739542999072,1228.5577817999292,1,active,45.5,1228.5579195999308,1232.0261472999118,10.0,3.448,1228.5907522999914,,,,,,,,,,,,,,,,,,,,,,,,,,,,,,,,,,,,,,sub-067,47.0,45.5,47.5,COM3,2025-09-19_14h41.30.457,2024_RDpaindiscrimination_maintask,2023.2.3,59.99444450007418,2025-09-19 14h41.53.170932 -0400,
1,0,1,0,6,0,6,0,,,,,,,,,,,,,1232.0407806999283,,,,,,,,1232.0268991999328,1237.0243192999624,1237.024325599894,1237.0408444999484,1249.0247047999874,2,active,45.5,1249.0248419999843,1253.6429668999044,13.500000000000137,4.598,1249.0577185999136,,,,,,,,,,,,,,,,,,,,,,,,,,,,,,,,,,,,,,sub-067,47.0,45.5,47.5,COM3,2025-09-19_14h41.30.457,2024_RDpaindiscrimination_maintask,2023.2.3,59.99444450007418,2025-09-19 14h41.53.170932 -0400,
1,0,1,0,7,0,7,0,,,,,,,,,,,,,1253.6577847999288,,,,,,,,1253.6437078999588,1258.641302099917,1258.6413077999605,1258.6578192999586,1270.6415702999802,3,inactive,47.0,1270.6417068999726,1276.1927433999954,68.4999999999999,5.53,1270.674608899979,,,,,,,,,,,,,,,,,,,,,,,,,,,,,,,,,,,,,,sub-067,47.0,45.5,47.5,COM3,2025-09-19_14h41.30.457,2024_RDpaindiscrimination_maintask,2023.2.3,59.99444450007418,2025-09-19 14h41.53.170932 -0400,
1,0,1,0,8,0,8,0,,,,,,,,,,,,,1276.2080075999256,,,,,,,,1276.1934957999038,1281.1915494999848,1281.1915557999164,1281.2080718999496,1293.1918459999142,0,active,45.5,1293.191981599899,1296.8108323999913,2.9999999999999876,3.599,1293.2248115999391,,,,,,,,,,,,,,,,,,,,,,,,,,,,,,,,,,,,,,sub-067,47.0,45.5,47.5,COM3,2025-09-19_14h41.30.457,2024_RDpaindiscrimination_maintask,2023.2.3,59.99444450007418,2025-09-19 14h41.53.170932 -0400,
1,0,1,0,9,0,9,0,,,,,,,,,,,,,1296.8249040999217,,,,,,,,1296.8115876999218,1301.8083939999342,1301.8084005999845,1301.824965699925,1313.808705399977,1,inactive,47.0,1313.8088428999763,1318.1280564999906,62.99999999999986,4.298,1313.8417403999483,,,,,,,,,,,,,,,,,,,,,,,,,,,,,,,,,,,,,,sub-067,47.0,45.5,47.5,COM3,2025-09-19_14h41.30.457,2024_RDpaindiscrimination_maintask,2023.2.3,59.99444450007418,2025-09-19 14h41.53.170932 -0400,
1,0,1,0,10,0,10,0,,,,,,,,,,,,,1318.1417864999967,,,,,,,,1318.1287796999095,1323.1253216998884,1323.1253283999395,1323.1418305999832,1335.1255591999507,2,active,45.5,1335.1256983999629,1339.660233499948,8.00000000000006,4.514,1335.158543700003,,,,,,,,,,,,,,,,,,,,,,,,,,,,,,,,,,,,,,sub-067,47.0,45.5,47.5,COM3,2025-09-19_14h41.30.457,2024_RDpaindiscrimination_maintask,2023.2.3,59.99444450007418,2025-09-19 14h41.53.170932 -0400,
1,0,1,0,11,0,11,0,,,,,,,,,,,,,1339.675257399911,,,,,,,,1339.6609996999614,1344.6588563999394,1344.658862399985,1344.6753061999334,1356.6591994999908,3,inactive,47.0,1356.6593413999071,1362.4275703999447,50.49999999999997,5.747,1356.6922089,,,,,,,,,,,,,,,,,,,,,,,,,,,,,,,,,,,,,,sub-067,47.0,45.5,47.5,COM3,2025-09-19_14h41.30.457,2024_RDpaindiscrimination_maintask,2023.2.3,59.99444450007418,2025-09-19 14h41.53.170932 -0400,
1,0,1,0,12,0,12,0,,,,,,,,,,,,,1362.442266499973,,,,,,,,1362.428302999935,1367.425791699905,1367.4257980999537,1367.4423212999245,1379.4259904999053,0,inactive,47.0,1379.4261314999312,1383.610323300003,64.49999999999984,4.076,1379.5423317999812,,,,,,,,,,,,,,,,,,,,,,,,,,,,,,,,,,,,,,sub-067,47.0,45.5,47.5,COM3,2025-09-19_14h41.30.457,2024_RDpaindiscrimination_maintask,2023.2.3,59.99444450007418,2025-09-19 14h41.53.170932 -0400,
1,0,1,0,13,0,13,0,,,,,,,,,,,,,1383.6257051998982,,,,,,,,1383.6110811999533,1388.6092208999908,1388.6092269999208,1388.625794099993,1400.6096360998927,1,active,45.5,1400.6097716999939,1403.9949882999063,4.000000000000022,3.366,1400.6426731999964,,,,,,,,,,,,,,,,,,,,,,,,,,,,,,,,,,,,,,sub-067,47.0,45.5,47.5,COM3,2025-09-19_14h41.30.457,2024_RDpaindiscrimination_maintask,2023.2.3,59.99444450007418,2025-09-19 14h41.53.170932 -0400,
1,0,1,0,14,0,14,0,,,,,,,,,,,,,1404.0093275998952,,,,,,,,1403.9960241999943,1408.9928875999758,1408.9928942999104,1409.0093483999372,1420.9930966999382,2,inactive,47.0,1420.9932378999656,1427.612803399912,70.99999999999983,6.599,1421.0260941999732,,,,,,,,,,,,,,,,,,,,,,,,,,,,,,,,,,,,,,sub-067,47.0,45.5,47.5,COM3,2025-09-19_14h41.30.457,2024_RDpaindiscrimination_maintask,2023.2.3,59.99444450007418,2025-09-19 14h41.53.170932 -0400,
1,0,1,0,15,0,15,0,,,,,,,,,,,,,1427.6262063999893,,,,,,,,1427.6136070999783,1432.609762399923,1432.6097685999703,1432.626286799903,1444.6101616999367,3,active,45.5,1444.6102976999246,1448.9617850999348,11.500000000000135,4.331,1444.6431018000003,,,,,,,,,,,,,,,,,,,,,,,,,,,,,,,,,,,,,,sub-067,47.0,45.5,47.5,COM3,2025-09-19_14h41.30.457,2024_RDpaindiscrimination_maintask,2023.2.3,59.99444450007418,2025-09-19 14h41.53.170932 -0400,
1,0,1,0,,,,,0,0,0,0,0,0,0,0,,,,,1452.1931432998972,,,,,,1451.7938628999982,1452.1766924998956,,,,,,0,inactive,47.0,1469.1767801999813,1472.4288503999123,72.00000000000003,3.232,,1448.9623904000036,1448.9764813999645,1451.7935428998899,1452.1769496999914,1457.1767067000037,1457.1767141999444,1457.1932013999904,,1469.1767721999204,,,,,,,,,,,,,,,,,,,,,,,,,,,,,sub-067,47.0,45.5,47.5,COM3,2025-09-19_14h41.30.457,2024_RDpaindiscrimination_maintask,2023.2.3,59.99444450007418,2025-09-19 14h41.53.170932 -0400,
1,0,1,0,,,,,0,0,0,0,1,0,1,0,,,,,1472.443394199945,,,,,,,,,,,,,1,active,47.0,1489.4273336000042,1492.0281903999858,60.500000000000036,2.581,,,,,1472.429596300004,1477.4269271999365,1477.4269338999875,1477.4434054999147,1489.4602503998904,1489.4273258999456,,,,,,,,,,,,,,,,,,,,,,,,,,,,,sub-067,47.0,45.5,47.5,COM3,2025-09-19_14h41.30.457,2024_RDpaindiscrimination_maintask,2023.2.3,59.99444450007418,2025-09-19 14h41.53.170932 -0400,
1,0,1,0,,,,,0,0,0,0,,,,,0,0,0,0,1493.2269102999708,,,,,,,,,,,,,2,inactive,,,,,,,,,,,,,,,,1492.0286878999323,1493.210457499954,1493.21077409992,1498.2104799998924,1498.2104866999434,1498.22696609993,1506.210468999925,1506.210468999925,1509.1772888998967,1509.2104243999347,1509.2104243999347,1509.1938573999796,4.54,4.26,454,426,8,1.2,0.75,pic-absent,0,m,1.145600999938324,None,,,,,sub-067,47.0,45.5,47.5,COM3,2025-09-19_14h41.30.457,2024_RDpaindiscrimination_maintask,2023.2.3,59.99444450007418,2025-09-19 14h41.53.170932 -0400,
1,0,1,0,,,,,0,0,0,0,,,,,1,0,1,0,1509.2104243999347,,,,,,,,,,,,,3,active,,,,,,,,,,,,,,,,,,1509.1944117998937,1514.194008499966,1514.194015899906,1514.2104311999865,1522.1938562999712,1522.1938562999712,1525.1606456999434,1525.1938916998915,1525.1938916998915,1525.1775740999728,3.28,5.52,328,552,8,1.2,0.75,pic-absent,0,m,1.1491043000714853,None,,,,,sub-067,47.0,45.5,47.5,COM3,2025-09-19_14h41.30.457,2024_RDpaindiscrimination_maintask,2023.2.3,59.99444450007418,2025-09-19 14h41.53.170932 -0400,
1,0,1,0,,,,,0,0,0,0,,,,,2,0,2,0,1525.1938916998915,,,,,,,,,,,,,0,active,,,,,,,,,,,,,,,,,,1525.178062699968,1530.1774346999591,1530.1774425999029,1530.1939449999481,1538.177356399945,1538.177356399945,1541.1440731999464,1541.1773930999916,1541.1773930999916,1541.1608738999348,3.32,5.48,332,548,8,1.2,0.75,pic-present,1,n,1.1022099999245256,None,,,,,sub-067,47.0,45.5,47.5,COM3,2025-09-19_14h41.30.457,2024_RDpaindiscrimination_maintask,2023.2.3,59.99444450007418,2025-09-19 14h41.53.170932 -0400,
1,0,1,0,,,,,0,0,0,0,,,,,3,0,3,0,1541.1773930999916,,,,,,,,,,,,,1,inactive,,,,,,,,,,,,,,,,,,1541.1613344999496,1546.1609053999418,1546.1609129999997,1546.1774431999074,1554.160857599927,1554.160857599927,1557.1275570999132,1557.1609249999747,1557.1609249999747,1557.144371100003,3.54,5.26,354,526,8,1.2,0.75,pic-present,1,n,1.2421638999367133,None,,,,,sub-067,47.0,45.5,47.5,COM3,2025-09-19_14h41.30.457,2024_RDpaindiscrimination_maintask,2023.2.3,59.99444450007418,2025-09-19 14h41.53.170932 -0400,
1,0,1,0,,,,,1,0,1,0,0,0,0,0,,,,,1557.6942443998996,,,,,,1557.1448578999843,1557.6778135999339,,,,,,2,active,47.0,1574.6780730999308,1578.0964860999957,62.49999999999999,3.399,,,,,1557.6780919999583,1562.6777523999335,1562.6777587999823,1562.6943293999648,1574.7110730999848,1574.67806559999,,,,,,,,,,,,,,,,,,,,,,,,,,,,,sub-067,47.0,45.5,47.5,COM3,2025-09-19_14h41.30.457,2024_RDpaindiscrimination_maintask,2023.2.3,59.99444450007418,2025-09-19 14h41.53.170932 -0400,
1,0,1,0,,,,,1,0,1,0,1,0,1,0,,,,,1578.1111333000008,,,,,,,,,,,,,3,inactive,47.0,1595.0949559999863,1599.3132584999548,65.49999999999991,4.198,,,,,1578.0972424999345,1583.094697499997,1583.094704399933,1583.1111735999584,1595.128024399979,1595.09494859993,,,,,,,,,,,,,,,,,,,,,,,,,,,,,sub-067,47.0,45.5,47.5,COM3,2025-09-19_14h41.30.457,2024_RDpaindiscrimination_maintask,2023.2.3,59.99444450007418,2025-09-19 14h41.53.170932 -0400,
1,0,1,0,,,,,1,0,1,0,,,,,0,0,0,0,1600.5113764998969,,,,,,,,,,,,,0,active,,,,,,,,,,,,,,,,1599.3138143999968,1600.4949909999268,1600.4953015999636,1605.49491759995,1605.4949244000018,1605.511504199938,1613.4948684999254,1613.4948684999254,1616.4616083999863,1616.4950487999013,1616.4950487999013,1616.4783995999023,3.49,5.31,349,531,8,1.2,0.75,pic-absent,0,m,1.1880420999368653,None,,,,,sub-067,47.0,45.5,47.5,COM3,2025-09-19_14h41.30.457,2024_RDpaindiscrimination_maintask,2023.2.3,59.99444450007418,2025-09-19 14h41.53.170932 -0400,
1,0,1,0,,,,,1,0,1,0,,,,,1,0,1,0,1616.4950487999013,,,,,,,,,,,,,1,inactive,,,,,,,,,,,,,,,,,,1616.4788948999485,1621.478452499956,1621.4784595998935,1621.494949099957,1629.478477699915,1629.478477699915,1632.4450247999048,1632.4783597999485,1632.4783597999485,1632.4618366999784,4.4,4.4,440,440,8,1.2,0.75,pic-present,1,n,1.2761348999338225,None,,,,,sub-067,47.0,45.5,47.5,COM3,2025-09-19_14h41.30.457,2024_RDpaindiscrimination_maintask,2023.2.3,59.99444450007418,2025-09-19 14h41.53.170932 -0400,
1,0,1,0,,,,,1,0,1,0,,,,,2,0,2,0,1632.4783597999485,,,,,,,,,,,,,2,inactive,,,,,,,,,,,,,,,,,,1632.4623253999744,1637.461930199992,1637.4619375999318,1637.4784485999262,1645.4619760999922,1645.4619760999922,1648.4286210999126,1648.4619065999286,1648.4619065999286,1648.4453834999586,4.04,4.76,404,476,8,1.2,0.75,pic-present,1,n,1.177728999988176,None,,,,,sub-067,47.0,45.5,47.5,COM3,2025-09-19_14h41.30.457,2024_RDpaindiscrimination_maintask,2023.2.3,59.99444450007418,2025-09-19 14h41.53.170932 -0400,
1,0,1,0,,,,,1,0,1,0,,,,,3,0,3,0,1648.4619065999286,,,,,,,,,,,,,3,active,,,,,,,,,,,,,,,,,,1648.4458483998897,1653.4454324999824,1653.44543959992,1653.4619497999083,1661.445372999995,1661.445372999995,1664.4122270999942,1664.4455089999828,1664.4455089999828,1664.4290137999924,3.68,5.12,368,512,8,1.2,0.75,pic-absent,0,m,1.2100127000594512,None,,,,,sub-067,47.0,45.5,47.5,COM3,2025-09-19_14h41.30.457,2024_RDpaindiscrimination_maintask,2023.2.3,59.99444450007418,2025-09-19 14h41.53.170932 -0400,
1,0,1,0,,,,,2,0,2,0,0,0,0,0,,,,,1664.8953724999446,,,,,,1664.4294970999472,1664.878925499972,,,,,,0,active,47.0,1681.8789723999798,1685.7644031998934,44.99999999999999,3.865,,,,,1664.8791868999833,1669.8788907999406,1669.8788975999923,1669.8954313999275,,1681.878963499912,,,,,,,,,,,,,,,,,,,,,,,,,,,,,sub-067,47.0,45.5,47.5,COM3,2025-09-19_14h41.30.457,2024_RDpaindiscrimination_maintask,2023.2.3,59.99444450007418,2025-09-19 14h41.53.170932 -0400,
1,0,1,0,,,,,2,0,2,0,1,0,1,0,,,,,1685.7790425999556,,,,,,,,,,,,,1,inactive,47.0,1702.7628305999096,1706.2138659999473,46.50000000000012,3.43,,,,,1685.7651197999949,1690.7625387998996,1690.762545799953,1690.7790161999874,1702.7958997999085,1702.7628232999705,,,,,,,,,,,,,,,,,,,,,,,,,,,,,sub-067,47.0,45.5,47.5,COM3,2025-09-19_14h41.30.457,2024_RDpaindiscrimination_maintask,2023.2.3,59.99444450007418,2025-09-19 14h41.53.170932 -0400,
1,0,1,0,,,,,2,0,2,0,,,,,0,0,0,0,1707.6458329999587,,,,,,,,,,,,,2,inactive,,,,,,,,,,,,,,,,1706.214297199971,1707.6293761999113,1707.6296779999975,1712.629401699989,1712.6294085999252,1712.6458904999308,1720.6293335999362,1720.6293335999362,1723.5960219999542,1723.6294199998956,1723.6294199998956,1723.6129100999096,4.43,4.37,443,437,8,1.2,0.75,pic-present,1,n,1.0731670999666676,None,,,,,sub-067,47.0,45.5,47.5,COM3,2025-09-19_14h41.30.457,2024_RDpaindiscrimination_maintask,2023.2.3,59.99444450007418,2025-09-19 14h41.53.170932 -0400,
1,0,1,0,,,,,2,0,2,0,,,,,1,0,1,0,1723.6294199998956,,,,,,,,,,,,,3,active,,,,,,,,,,,,,,,,,,1723.6140965999803,1728.612905899994,1728.6129127999302,1728.6294841999188,1736.6294723999454,1736.6294723999454,1739.5795093999477,1739.629509499995,1739.629509499995,1739.6129927999573,3.95,4.85,395,484,8,1.2,0.75,pic-present,1,n,1.045246999943629,None,,,,,sub-067,47.0,45.5,47.5,COM3,2025-09-19_14h41.30.457,2024_RDpaindiscrimination_maintask,2023.2.3,59.99444450007418,2025-09-19 14h41.53.170932 -0400,
1,0,1,0,,,,,2,0,2,0,,,,,2,0,2,0,1739.629509499995,,,,,,,,,,,,,0,active,,,,,,,,,,,,,,,,,,1739.6134501999477,1744.6130387999583,1744.6130453998921,1744.629587699892,1752.6129757999443,1752.6129757999443,1755.5796690999996,1755.6130531999515,1755.6130531999515,1755.596523999935,4.53,4.27,453,426,8,1.2,0.75,pic-absent,1,n,1.1898237999994308,None,,,,,sub-067,47.0,45.5,47.5,COM3,2025-09-19_14h41.30.457,2024_RDpaindiscrimination_maintask,2023.2.3,59.99444450007418,2025-09-19 14h41.53.170932 -0400,
1,0,1,0,,,,,2,0,2,0,,,,,3,0,3,0,1755.6130531999515,,,,,,,,,,,,,1,inactive,,,,,,,,,,,,,,,,,,1755.5969829999376,1760.5965267999563,1760.5965335998917,1760.6130608998938,1768.5965370999184,1768.5965370999184,1771.5631844999734,1771.596516199992,1771.596516199992,1771.580090399948,4.49,4.31,449,430,8,1.2,0.75,pic-absent,1,n,1.419757799943909,None,,,,,sub-067,47.0,45.5,47.5,COM3,2025-09-19_14h41.30.457,2024_RDpaindiscrimination_maintask,2023.2.3,59.99444450007418,2025-09-19 14h41.53.170932 -0400,
1,0,1,0,,,,,3,0,3,0,0,0,0,0,,,,,1772.213183499989,,,,,,1771.5806101999478,1772.1967834999086,,,,,,2,inactive,47.0,1789.196991899982,1792.3492609999375,55.00000000000006,3.132,,,,,1772.1970806999598,1777.1967177999904,1777.1967250999296,1777.2132489999058,1789.2301193999592,1789.196983599919,,,,,,,,,,,,,,,,,,,,,,,,,,,,,sub-067,47.0,45.5,47.5,COM3,2025-09-19_14h41.30.457,2024_RDpaindiscrimination_maintask,2023.2.3,59.99444450007418,2025-09-19 14h41.53.170932 -0400,
1,0,1,0,,,,,3,0,3,0,1,0,1,0,,,,,1792.3634386999765,,,,,,,,,,,,,3,active,47.0,1809.3472463999642,1812.832321099937,47.499999999999936,3.464,,,,,1792.350002399995,1797.34694879991,1797.346955899964,1797.3634754999075,1809.3802489999216,1809.347238099901,,,,,,,,,,,,,,,,,,,,,,,,,,,,,sub-067,47.0,45.5,47.5,COM3,2025-09-19_14h41.30.457,2024_RDpaindiscrimination_maintask,2023.2.3,59.99444450007418,2025-09-19 14h41.53.170932 -0400,
1,0,1,0,,,,,3,0,3,0,,,,,0,0,0,0,1814.0469769999618,,,,,,,,,,,,,0,active,,,,,,,,,,,,,,,,1812.832482800004,1814.0305865999544,1814.0309010999044,1819.0304874998983,1819.0304945999524,1819.047021699953,1827.0305643999018,1827.0305643999018,1829.9972634000005,1830.0305959999096,1830.0305959999096,1830.014095599996,3.39,5.41,339,541,8,1.2,0.75,pic-present,1,n,1.0133245999459177,None,,,,,sub-067,47.0,45.5,47.5,COM3,2025-09-19_14h41.30.457,2024_RDpaindiscrimination_maintask,2023.2.3,59.99444450007418,2025-09-19 14h41.53.170932 -0400,
1,0,1,0,,,,,3,0,3,0,,,,,1,0,1,0,1830.0305959999096,,,,,,,,,,,,,1,inactive,,,,,,,,,,,,,,,,,,1830.0146559999557,1835.014114099904,1835.0141205999535,1835.0306519999867,1843.013982299948,1843.013982299948,1845.9806750999996,1846.0140425999416,1846.0140425999416,1845.997493200004,4.32,4.48,432,448,8,1.2,0.75,pic-absent,0,m,1.0249820000026375,None,,,,,sub-067,47.0,45.5,47.5,COM3,2025-09-19_14h41.30.457,2024_RDpaindiscrimination_maintask,2023.2.3,59.99444450007418,2025-09-19 14h41.53.170932 -0400,
1,0,1,0,,,,,3,0,3,0,,,,,2,0,2,0,1846.0140425999416,,,,,,,,,,,,,2,inactive,,,,,,,,,,,,,,,,,,1845.9979463999625,1850.9974975999212,1850.9975040999707,1851.0140293999575,1858.9975733999163,1858.9975733999163,1861.96426909999,1861.9975958999712,1861.9975958999712,1861.981020999956,3.26,5.54,326,554,8,1.2,0.75,pic-absent,0,m,1.5460050000110641,None,,,,,sub-067,47.0,45.5,47.5,COM3,2025-09-19_14h41.30.457,2024_RDpaindiscrimination_maintask,2023.2.3,59.99444450007418,2025-09-19 14h41.53.170932 -0400,
1,0,1,0,,,,,3,0,3,0,,,,,3,0,3,0,1861.9975958999712,,,,,,,,,,,,,3,active,,,,,,,,,,,,,,,,,,1861.9814697999973,1866.981061999919,1866.981069099973,1866.9975667999825,1874.9809834999032,1874.9809834999032,1877.9476836998947,1877.9810115,1877.9810115,1877.9645018999,4.28,4.52,428,451,8,1.2,0.75,pic-present,1,n,1.3016560999676585,None,,,,,sub-067,47.0,45.5,47.5,COM3,2025-09-19_14h41.30.457,2024_RDpaindiscrimination_maintask,2023.2.3,59.99444450007418,2025-09-19 14h41.53.170932 -0400,
,,,,,,,,,,,,,,,,,,,,,,,,,,,,,,,,,,,,,,,,,,,,,,,,,,,,,,,,,,,,,,,,,,,,,,,,,,1877.9649512999458,1879.2480305999052,1879.248048499925,1889.2479412999237,,,,,,,,,,,
