trials.thisRepN,trials.thisTrialN,trials.thisN,trials.thisIndex,loop_test.thisRepN,loop_test.thisTrialN,loop_test.thisN,loop_test.thisIndex,loop_eval_discri.thisRepN,loop_eval_discri.thisTrialN,loop_eval_discri.thisN,loop_eval_discri.thisIndex,loop_eval.thisRepN,loop_eval.thisTrialN,loop_eval.thisN,loop_eval.thisIndex,loop_discri.thisRepN,loop_discri.thisTrialN,loop_discri.thisN,loop_discri.thisIndex,thisRow.t,notes,Set_up.started,Set_up.stopped,electrode_check.started,electrode_check.stopped,instructions_eval.started,instructions_eval.stopped,pause_5_test.started,pause_5_test.stopped,Phase_Test.started,thermode_locali.started,Phase_Test.stopped,loca_thermode,condition,temp_trial_sent,eval_douleur.started,eval_douleur.stopped,ratingScale.response,ratingScale.rt,thermode_locali.stopped,Fin_test.started,text.started,Fin_test.stopped,pause_5_EVA.started,pause_5_EVA.stopped,tâche_EVA.started,thermode_locali_EVA.started,thermode_locali_EVA.stopped,tâche_EVA.stopped,instructions_discrim.started,instructions_discrim.stopped,pause_5_pic.started,pause_5_pic.stopped,tâche_PIC.started,thermode_locali_pic.started,percu_or.started,responser.started,thermode_locali_pic.stopped,percu_or.stopped,responser.stopped,tâche_PIC.stopped,dur_plateau1,dur_plateau2,dur_plateau1_sent,dur_plateau2_sent,start_plateau_2_resp,dur_pic,dur_rise,pic_presence,pic_response,discrimin_resp.keys,discrimin_resp.rt,discrimin_resp.duration,break_entre_bloc.started,break_entre_bloc.stopped,merci.started,merci.stopped,participant,temp_flat,temp_active,temp_pic_set,com_thermode,date,expName,psychopyVersion,frameRate,expStart,
0,0,0,0,0,0,0,0,,,,,,,,,,,,,279.3561726999469,,0.0027276999317109585,259.5561897000298,259.556588599924,264.6062054000795,264.60621310025454,279.3230908000842,279.32340750005096,284.33960850024596,284.3396140001714,284.35624499991536,296.3397560999729,0,inactive,47.1,296.3399968999438,307.1748231998645,4.500000000000058,10.81,,,,,,,,,,,,,,,,,,,,,,,,,,,,,,,,,,,,,,,sub-070,47.1,44.0,46.2,COM3,2025-11-17_13h46.09.747,2024_RDpaindiscrimination_maintask,2023.2.3,59.992500866322054,2025-11-17 13h46.34.014724 -0500,
0,0,0,0,1,0,1,0,,,,,,,,,,,,,307.18994199996814,,,,,,,,307.1757141002454,312.17339819995686,312.1734037999995,312.1899296999909,324.17365020001307,1,inactive,47.1,324.1737858001143,329.14174700016156,28.00000000000015,4.949,324.2067475002259,,,,,,,,,,,,,,,,,,,,,,,,,,,,,,,,,,,,,,sub-070,47.1,44.0,46.2,COM3,2025-11-17_13h46.09.747,2024_RDpaindiscrimination_maintask,2023.2.3,59.992500866322054,2025-11-17 13h46.34.014724 -0500,
0,0,0,0,2,0,2,0,,,,,,,,,,,,,329.156799599994,,,,,,,,329.142084099818,334.14033260010183,334.14033759990707,334.1568563999608,346.1406362000853,2,active,44.0,346.1407702998258,350.5250687999651,4.500000000000164,4.364,346.17360430024564,,,,,,,,,,,,,,,,,,,,,,,,,,,,,,,,,,,,,,sub-070,47.1,44.0,46.2,COM3,2025-11-17_13h46.09.747,2024_RDpaindiscrimination_maintask,2023.2.3,59.992500866322054,2025-11-17 13h46.34.014724 -0500,
0,0,0,0,3,0,3,0,,,,,,,,,,,,,350.5404639998451,,,,,,,,350.5258487001993,355.5239734002389,355.5239794999361,355.5404505999759,367.52425180003047,3,active,44.0,367.5243850001134,372.50938470009714,7.5000000000002025,4.965,367.55726590007544,,,,,,,,,,,,,,,,,,,,,,,,,,,,,,,,,,,,,,sub-070,47.1,44.0,46.2,COM3,2025-11-17_13h46.09.747,2024_RDpaindiscrimination_maintask,2023.2.3,59.992500866322054,2025-11-17 13h46.34.014724 -0500,
0,0,0,0,4,0,4,0,,,,,,,,,,,,,372.5240698000416,,,,,,,,372.5101517001167,377.50755320023745,377.50755860004574,377.5240731998347,389.50785510009155,0,inactive,47.1,389.50799350021407,394.47710329992697,4.000000000000164,4.95,389.540893800091,,,,,,,,,,,,,,,,,,,,,,,,,,,,,,,,,,,,,,sub-070,47.1,44.0,46.2,COM3,2025-11-17_13h46.09.747,2024_RDpaindiscrimination_maintask,2023.2.3,59.992500866322054,2025-11-17 13h46.34.014724 -0500,
0,0,0,0,5,0,5,0,,,,,,,,,,,,,394.4909433000721,,,,,,,,394.47786850016564,399.4743921998888,399.4743980001658,399.4908798998222,411.47467439994216,1,active,44.0,411.47481080004945,415.2268731999211,0.0,3.732,411.50769460015,,,,,,,,,,,,,,,,,,,,,,,,,,,,,,,,,,,,,,sub-070,47.1,44.0,46.2,COM3,2025-11-17_13h46.09.747,2024_RDpaindiscrimination_maintask,2023.2.3,59.992500866322054,2025-11-17 13h46.34.014724 -0500,
0,0,0,0,6,0,6,0,,,,,,,,,,,,,415.2411767002195,,,,,,,,415.2276560999453,420.22461580019444,420.22462170012295,420.24115120014176,432.22495030006394,2,inactive,47.1,432.2250842000358,435.64343240018934,43.00000000000003,3.398,432.2579895998351,,,,,,,,,,,,,,,,,,,,,,,,,,,,,,,,,,,,,,sub-070,47.1,44.0,46.2,COM3,2025-11-17_13h46.09.747,2024_RDpaindiscrimination_maintask,2023.2.3,59.992500866322054,2025-11-17 13h46.34.014724 -0500,
0,0,0,0,7,0,7,0,,,,,,,,,,,,,435.65803579986095,,,,,,,,435.6441854001023,440.6415412002243,440.6415474000387,440.6581012001261,452.64188650017604,3,active,44.0,452.6420224001631,455.7099779997952,12.499999999999993,3.048,452.67490180023015,,,,,,,,,,,,,,,,,,,,,,,,,,,,,,,,,,,,,,sub-070,47.1,44.0,46.2,COM3,2025-11-17_13h46.09.747,2024_RDpaindiscrimination_maintask,2023.2.3,59.992500866322054,2025-11-17 13h46.34.014724 -0500,
0,0,0,0,8,0,8,0,,,,,,,,,,,,,455.72493029991165,,,,,,,,455.71072829980403,460.7084590001032,460.70846439991146,460.7250231001526,472.7087989002466,0,active,44.0,472.70893249986693,477.4100854001008,0.0,4.68,472.74180730013177,,,,,,,,,,,,,,,,,,,,,,,,,,,,,,,,,,,,,,sub-070,47.1,44.0,46.2,COM3,2025-11-17_13h46.09.747,2024_RDpaindiscrimination_maintask,2023.2.3,59.992500866322054,2025-11-17 13h46.34.014724 -0500,
0,0,0,0,9,0,9,0,,,,,,,,,,,,,477.42520860023797,,,,,,,,477.410842299927,482.40875930013135,482.40876549994573,482.4253116999753,494.40908259991556,1,inactive,47.1,494.4092192002572,497.6442764000967,49.500000000000036,3.215,494.44211499998346,,,,,,,,,,,,,,,,,,,,,,,,,,,,,,,,,,,,,,sub-070,47.1,44.0,46.2,COM3,2025-11-17_13h46.09.747,2024_RDpaindiscrimination_maintask,2023.2.3,59.992500866322054,2025-11-17 13h46.34.014724 -0500,
0,0,0,0,10,0,10,0,,,,,,,,,,,,,497.6588375000283,,,,,,,,497.64500850019976,502.64238400012255,502.64239000016823,502.65888760006055,514.642709299922,2,active,44.0,514.6428419998847,518.1442177002318,4.500000000000058,3.482,514.6757386000827,,,,,,,,,,,,,,,,,,,,,,,,,,,,,,,,,,,,,,sub-070,47.1,44.0,46.2,COM3,2025-11-17_13h46.09.747,2024_RDpaindiscrimination_maintask,2023.2.3,59.992500866322054,2025-11-17 13h46.34.014724 -0500,
0,0,0,0,11,0,11,0,,,,,,,,,,,,,518.1590815000236,,,,,,,,518.1449925000779,523.1425977000035,523.1426038001664,523.1591432997957,535.1429594000801,3,inactive,47.1,535.14309519995,537.9616077002138,53.499999999999986,2.751,535.2259659999982,,,,,,,,,,,,,,,,,,,,,,,,,,,,,,,,,,,,,,sub-070,47.1,44.0,46.2,COM3,2025-11-17_13h46.09.747,2024_RDpaindiscrimination_maintask,2023.2.3,59.992500866322054,2025-11-17 13h46.34.014724 -0500,
0,0,0,0,12,0,12,0,,,,,,,,,,,,,537.9760182998143,,,,,,,,537.9623838998377,542.9595245001838,542.9595305002294,542.9760571001098,554.9598338999785,0,active,44.0,554.9599815998226,559.0611466998234,0.0,4.081,554.9928573998623,,,,,,,,,,,,,,,,,,,,,,,,,,,,,,,,,,,,,,sub-070,47.1,44.0,46.2,COM3,2025-11-17_13h46.09.747,2024_RDpaindiscrimination_maintask,2023.2.3,59.992500866322054,2025-11-17 13h46.34.014724 -0500,
0,0,0,0,13,0,13,0,,,,,,,,,,,,,559.0763187999837,,,,,,,,559.0618858998641,564.0598679999821,564.0598744000308,564.0763046001084,576.0600788001902,1,active,44.0,576.0602182000875,579.5952000999823,15.500000000000139,3.516,576.0931071001105,,,,,,,,,,,,,,,,,,,,,,,,,,,,,,,,,,,,,,sub-070,47.1,44.0,46.2,COM3,2025-11-17_13h46.09.747,2024_RDpaindiscrimination_maintask,2023.2.3,59.992500866322054,2025-11-17 13h46.34.014724 -0500,
0,0,0,0,14,0,14,0,,,,,,,,,,,,,579.6098604998551,,,,,,,,579.5959568000399,584.5933540998958,584.5933596999384,584.6099144998007,596.5936711998656,2,inactive,47.1,596.5938053000718,600.4788946998306,48.50000000000008,3.864,596.6267352998257,,,,,,,,,,,,,,,,,,,,,,,,,,,,,,,,,,,,,,sub-070,47.1,44.0,46.2,COM3,2025-11-17_13h46.09.747,2024_RDpaindiscrimination_maintask,2023.2.3,59.992500866322054,2025-11-17 13h46.34.014724 -0500,
0,0,0,0,15,0,15,0,,,,,,,,,,,,,600.4934903997928,,,,,,,,600.4796660998836,605.4769826000556,605.47698879987,605.4934793999419,617.4773090998642,3,inactive,47.1,617.4774438999593,620.9953360999934,53.50000000000002,3.499,617.510292599909,,,,,,,,,,,,,,,,,,,,,,,,,,,,,,,,,,,,,,sub-070,47.1,44.0,46.2,COM3,2025-11-17_13h46.09.747,2024_RDpaindiscrimination_maintask,2023.2.3,59.992500866322054,2025-11-17 13h46.34.014724 -0500,
0,0,0,0,,,,,0,0,0,0,0,0,0,0,,,,,658.8442347999662,,,,,,657.8614027001895,658.8277535000816,,,,,,0,inactive,47.1,675.8281280002557,680.5631925999187,39.50000000000014,4.716,,620.9959121001884,621.0104323001578,657.8610753002577,658.8280131998472,663.8276947000995,663.8277007001452,663.8442203998566,675.8610813999549,675.8281187000684,,,,,,,,,,,,,,,,,,,,,,,,,,,,,sub-070,47.1,44.0,46.2,COM3,2025-11-17_13h46.09.747,2024_RDpaindiscrimination_maintask,2023.2.3,59.992500866322054,2025-11-17 13h46.34.014724 -0500,
0,0,0,0,,,,,0,0,0,0,1,0,1,0,,,,,680.5778389000334,,,,,,,,,,,,,1,active,47.1,697.561767899897,702.6297082002275,26.000000000000085,5.047,,,,,680.5639100000262,685.5614428999834,685.5614513000473,685.5779585000128,697.5947745000012,697.5617602001876,,,,,,,,,,,,,,,,,,,,,,,,,,,,,sub-070,47.1,44.0,46.2,COM3,2025-11-17_13h46.09.747,2024_RDpaindiscrimination_maintask,2023.2.3,59.992500866322054,2025-11-17 13h46.34.014724 -0500,
0,0,0,0,,,,,0,0,0,0,,,,,0,0,0,0,705.5448703002185,,,,,,,,,,,,,2,active,,,,,,,,,,,,,,,,702.630278499797,705.528426699806,705.5287223001942,710.528397299815,710.5284036002122,710.5449343002401,718.5283678001724,718.5283678001724,721.4950652001426,721.528403900098,721.528403900098,721.5119218998589,3.32,5.48,332,548,8,1.2,0.75,pic-absent,0,n,2.9471380999311805,None,,,,,sub-070,47.1,44.0,46.2,COM3,2025-11-17_13h46.09.747,2024_RDpaindiscrimination_maintask,2023.2.3,59.992500866322054,2025-11-17 13h46.34.014724 -0500,
0,0,0,0,,,,,0,0,0,0,,,,,1,0,1,0,721.528403900098,,,,,,,,,,,,,3,inactive,,,,,,,,,,,,,,,,,,721.5124893998727,726.5118988999166,726.5119054000825,726.5284775998443,734.5118983001448,734.5118983001448,737.4786112001166,737.5119555001147,737.5119555001147,737.4954308001325,4.11,4.69,411,469,8,1.2,0.75,pic-present,1,m,1.0914606996811926,None,,,,,sub-070,47.1,44.0,46.2,COM3,2025-11-17_13h46.09.747,2024_RDpaindiscrimination_maintask,2023.2.3,59.992500866322054,2025-11-17 13h46.34.014724 -0500,
0,0,0,0,,,,,0,0,0,0,,,,,2,0,2,0,737.5119555001147,,,,,,,,,,,,,0,inactive,,,,,,,,,,,,,,,,,,737.4959002002142,742.495512700174,742.4955198001117,742.5120016001165,750.4954424002208,750.4954424002208,753.4621504000388,753.4954846999608,753.4954846999608,753.4789181998931,4.41,4.39,441,438,8,1.2,0.75,pic-present,0,n,0.8481159000657499,None,,,,,sub-070,47.1,44.0,46.2,COM3,2025-11-17_13h46.09.747,2024_RDpaindiscrimination_maintask,2023.2.3,59.992500866322054,2025-11-17 13h46.34.014724 -0500,
0,0,0,0,,,,,0,0,0,0,,,,,3,0,3,0,753.4954846999608,,,,,,,,,,,,,1,active,,,,,,,,,,,,,,,,,,753.4794028000906,758.4790011001751,758.4790076999925,758.4955425001681,766.4789797998965,766.4789797998965,769.4456715001725,769.4790150001645,769.4790150001645,769.462471100036,3.69,5.11,369,511,8,1.2,0.75,pic-absent,1,m,0.9767348999157548,None,,,,,sub-070,47.1,44.0,46.2,COM3,2025-11-17_13h46.09.747,2024_RDpaindiscrimination_maintask,2023.2.3,59.992500866322054,2025-11-17 13h46.34.014724 -0500,
0,0,0,0,,,,,1,0,1,0,0,0,0,0,,,,,770.9790395000018,,,,,,769.4629791998304,770.9626247999258,,,,,,2,active,47.1,787.9629591000266,790.8812702000141,23.0,2.898,,,,,770.9628949998878,775.9625790999271,775.9625861998647,775.9791056998074,787.9958298001438,787.9629509998485,,,,,,,,,,,,,,,,,,,,,,,,,,,,,sub-070,47.1,44.0,46.2,COM3,2025-11-17_13h46.09.747,2024_RDpaindiscrimination_maintask,2023.2.3,59.992500866322054,2025-11-17 13h46.34.014724 -0500,
0,0,0,0,,,,,1,0,1,0,1,0,1,0,,,,,790.8959478000179,,,,,,,,,,,,,3,inactive,47.1,807.8798275999725,811.1981230000965,51.99999999999992,3.298,,,,,790.8820178001188,795.8794925999828,795.8794990000315,795.8960317000747,807.9127997998148,807.8798202998005,,,,,,,,,,,,,,,,,,,,,,,,,,,,,sub-070,47.1,44.0,46.2,COM3,2025-11-17_13h46.09.747,2024_RDpaindiscrimination_maintask,2023.2.3,59.992500866322054,2025-11-17 13h46.34.014724 -0500,
0,0,0,0,,,,,1,0,1,0,,,,,0,0,0,0,812.5962395002134,,,,,,,,,,,,,0,inactive,,,,,,,,,,,,,,,,811.1986850998364,812.5798594001681,812.5801599002443,817.5797843998298,817.5797911002301,817.5963003002107,825.5797284999862,825.5797284999862,828.546399100218,828.5797719000839,828.5797719000839,828.5632168999873,3.51,5.29,351,529,8,1.2,0.75,pic-absent,0,n,1.1155702997930348,None,,,,,sub-070,47.1,44.0,46.2,COM3,2025-11-17_13h46.09.747,2024_RDpaindiscrimination_maintask,2023.2.3,59.992500866322054,2025-11-17 13h46.34.014724 -0500,
0,0,0,0,,,,,1,0,1,0,,,,,1,0,1,0,828.5797719000839,,,,,,,,,,,,,1,active,,,,,,,,,,,,,,,,,,828.5637540998869,833.5633060000837,833.5633133002557,833.5798353999853,841.5632691998035,841.5632691998035,844.5298644998111,844.5631897998974,844.5631897998974,844.5466602998786,3.73,5.07,373,507,8,1.2,0.75,pic-present,1,m,0.8805607999674976,None,,,,,sub-070,47.1,44.0,46.2,COM3,2025-11-17_13h46.09.747,2024_RDpaindiscrimination_maintask,2023.2.3,59.992500866322054,2025-11-17 13h46.34.014724 -0500,
0,0,0,0,,,,,1,0,1,0,,,,,2,0,2,0,844.5631897998974,,,,,,,,,,,,,2,active,,,,,,,,,,,,,,,,,,844.5471143000759,849.5467639002018,849.546770399902,849.5633430001326,857.5466840001754,857.5466840001754,860.5133925001137,860.5467612999491,860.5467612999491,860.530198100023,4.42,4.38,442,438,8,1.2,0.75,pic-absent,0,n,0.960759500041604,None,,,,,sub-070,47.1,44.0,46.2,COM3,2025-11-17_13h46.09.747,2024_RDpaindiscrimination_maintask,2023.2.3,59.992500866322054,2025-11-17 13h46.34.014724 -0500,
0,0,0,0,,,,,1,0,1,0,,,,,3,0,3,0,860.5467612999491,,,,,,,,,,,,,3,inactive,,,,,,,,,,,,,,,,,,860.5306681999937,865.5302502000704,865.530257599894,865.5467956000939,873.5303409998305,873.5303409998305,876.4969231002033,876.5302606998011,876.5302606998011,876.5137379001826,4.66,4.14,466,413,8,1.2,0.75,pic-absent,0,n,1.0372465001419187,None,,,,,sub-070,47.1,44.0,46.2,COM3,2025-11-17_13h46.09.747,2024_RDpaindiscrimination_maintask,2023.2.3,59.992500866322054,2025-11-17 13h46.34.014724 -0500,
0,0,0,0,,,,,2,0,2,0,0,0,0,0,,,,,877.1302732001059,,,,,,876.5142564000562,877.1138773998246,,,,,,0,active,47.1,894.114131799899,896.615463799797,23.499999999999986,2.482,,,,,877.1141789997928,882.1137974001467,882.1138051999733,882.1303524998948,894.1471859999001,894.1141238999553,,,,,,,,,,,,,,,,,,,,,,,,,,,,,sub-070,47.1,44.0,46.2,COM3,2025-11-17_13h46.09.747,2024_RDpaindiscrimination_maintask,2023.2.3,59.992500866322054,2025-11-17 13h46.34.014724 -0500,
0,0,0,0,,,,,2,0,2,0,1,0,1,0,,,,,896.630645299796,,,,,,,,,,,,,1,inactive,47.1,913.6145194000565,917.1991317998618,50.00000000000011,3.564,,,,,896.616230300162,901.6141742998734,901.6141809001565,901.6307104998268,913.6475154999644,913.6145120998845,,,,,,,,,,,,,,,,,,,,,,,,,,,,,sub-070,47.1,44.0,46.2,COM3,2025-11-17_13h46.09.747,2024_RDpaindiscrimination_maintask,2023.2.3,59.992500866322054,2025-11-17 13h46.34.014724 -0500,
0,0,0,0,,,,,2,0,2,0,,,,,0,0,0,0,918.5141662000678,,,,,,,,,,,,,2,inactive,,,,,,,,,,,,,,,,917.1996296998113,918.4977266001515,918.4980183001608,923.4976865998469,923.4976927000098,923.5142689999193,931.4976546000689,931.4976546000689,934.4643683000468,934.497750800103,934.497750800103,934.4811945999973,3.56,5.24,356,524,8,1.2,0.75,pic-present,0,n,1.0741631998680532,None,,,,,sub-070,47.1,44.0,46.2,COM3,2025-11-17_13h46.09.747,2024_RDpaindiscrimination_maintask,2023.2.3,59.992500866322054,2025-11-17 13h46.34.014724 -0500,
0,0,0,0,,,,,2,0,2,0,,,,,1,0,1,0,934.497750800103,,,,,,,,,,,,,3,active,,,,,,,,,,,,,,,,,,934.4817281002179,939.4812476998195,939.4812547001056,939.4977564997971,947.4812662000768,947.4812662000768,950.447952600196,950.4812441002578,950.4812441002578,950.4647666998208,4.07,4.73,407,473,8,1.2,0.75,pic-absent,1,m,0.6948665999807417,None,,,,,sub-070,47.1,44.0,46.2,COM3,2025-11-17_13h46.09.747,2024_RDpaindiscrimination_maintask,2023.2.3,59.992500866322054,2025-11-17 13h46.34.014724 -0500,
0,0,0,0,,,,,2,0,2,0,,,,,2,0,2,0,950.4812441002578,,,,,,,,,,,,,0,inactive,,,,,,,,,,,,,,,,,,950.4652265999466,955.464758399874,955.4647654998116,955.4812702001072,963.464717600029,963.464717600029,966.4314048998058,966.4647388001904,966.4647388001904,966.4482136000879,4.47,4.33,447,433,8,1.2,0.75,pic-absent,0,n,1.0071604000404477,None,,,,,sub-070,47.1,44.0,46.2,COM3,2025-11-17_13h46.09.747,2024_RDpaindiscrimination_maintask,2023.2.3,59.992500866322054,2025-11-17 13h46.34.014724 -0500,
0,0,0,0,,,,,2,0,2,0,,,,,3,0,3,0,966.4647388001904,,,,,,,,,,,,,1,active,,,,,,,,,,,,,,,,,,966.4486762001179,971.448313599918,971.4483197000809,971.4648036002181,979.4482319001108,979.4482319001108,982.4149469998665,982.448282300029,982.448282300029,982.4318023999222,3.32,5.48,332,548,8,1.2,0.75,pic-present,1,m,0.6367896003648639,None,,,,,sub-070,47.1,44.0,46.2,COM3,2025-11-17_13h46.09.747,2024_RDpaindiscrimination_maintask,2023.2.3,59.992500866322054,2025-11-17 13h46.34.014724 -0500,
0,0,0,0,,,,,3,0,3,0,0,0,0,0,,,,,983.748351499904,,,,,,982.4322855002247,983.7318688002415,,,,,,2,inactive,47.1,1000.7318990998901,1004.9673005999066,47.499999999999915,4.216,,,,,983.7321611000225,988.7320154998451,988.7320256000385,988.7484216000885,,1000.7318903999403,,,,,,,,,,,,,,,,,,,,,,,,,,,,,sub-070,47.1,44.0,46.2,COM3,2025-11-17_13h46.09.747,2024_RDpaindiscrimination_maintask,2023.2.3,59.992500866322054,2025-11-17 13h46.34.014724 -0500,
0,0,0,0,,,,,3,0,3,0,1,0,1,0,,,,,1004.9818998002447,,,,,,,,,,,,,3,active,47.1,1021.9657530998811,1025.3335468000732,39.50000000000007,3.348,,,,,1004.9680510000326,1009.9653898999095,1009.9653961001895,1009.9819275001064,1021.998821400106,1021.9657449000515,,,,,,,,,,,,,,,,,,,,,,,,,,,,,sub-070,47.1,44.0,46.2,COM3,2025-11-17_13h46.09.747,2024_RDpaindiscrimination_maintask,2023.2.3,59.992500866322054,2025-11-17 13h46.34.014724 -0500,
0,0,0,0,,,,,3,0,3,0,,,,,0,0,0,0,1026.698809800204,,,,,,,,,,,,,0,active,,,,,,,,,,,,,,,,1025.334366499912,1026.6824225001037,1026.6827567000873,1031.6823444999754,1031.6823510997929,1031.6988765001297,1039.6823792001233,1039.6823792001233,1042.649081000127,1042.6824313998222,1042.6824313998222,1042.6658975002356,4.52,4.28,451,428,8,1.2,0.75,pic-present,0,n,0.9577220003120601,None,,,,,sub-070,47.1,44.0,46.2,COM3,2025-11-17_13h46.09.747,2024_RDpaindiscrimination_maintask,2023.2.3,59.992500866322054,2025-11-17 13h46.34.014724 -0500,
0,0,0,0,,,,,3,0,3,0,,,,,1,0,1,0,1042.6824313998222,,,,,,,,,,,,,1,inactive,,,,,,,,,,,,,,,,,,1042.6664264001884,1047.66600940004,1047.6660159002058,1047.682560400106,1055.6659157001413,1055.6659157001413,1058.632619800046,1058.665961300023,1058.665961300023,1058.649434799794,4.64,4.16,463,416,8,1.2,0.75,pic-absent,1,m,0.8054740000516176,None,,,,,sub-070,47.1,44.0,46.2,COM3,2025-11-17_13h46.09.747,2024_RDpaindiscrimination_maintask,2023.2.3,59.992500866322054,2025-11-17 13h46.34.014724 -0500,
0,0,0,0,,,,,3,0,3,0,,,,,2,0,2,0,1058.665961300023,,,,,,,,,,,,,2,active,,,,,,,,,,,,,,,,,,1058.6499250000343,1063.6494864998385,1063.6494930000044,1063.666028100066,1071.649452299811,1071.649452299811,1074.616161200218,1074.649494800251,1074.649494800251,1074.633014100138,3.98,4.82,398,482,8,1.2,0.75,pic-present,1,m,1.1146021001040936,None,,,,,sub-070,47.1,44.0,46.2,COM3,2025-11-17_13h46.09.747,2024_RDpaindiscrimination_maintask,2023.2.3,59.992500866322054,2025-11-17 13h46.34.014724 -0500,
0,0,0,0,,,,,3,0,3,0,,,,,3,0,3,0,1074.649494800251,,,,,,,,,,,,,3,inactive,,,,,,,,,,,,,,,,,,1074.6335048000328,1079.6330229998566,1079.6330291000195,1079.6495586000383,1087.632947199978,1087.632947199978,1090.599699200131,1090.6329653998837,1090.6329653998837,1090.6165184001438,4.58,4.22,458,422,8,1.2,0.75,pic-present,1,m,0.7993661998771131,None,,,,,sub-070,47.1,44.0,46.2,COM3,2025-11-17_13h46.09.747,2024_RDpaindiscrimination_maintask,2023.2.3,59.992500866322054,2025-11-17 13h46.34.014724 -0500,
1,0,1,0,0,0,0,0,,,,,,,,,,,,,1146.9003746001981,,,,1125.2504528998397,1146.5505865998566,1146.5505945999175,1146.883977100253,1146.8842750000767,1151.883951799944,1151.8839577999897,1151.9004489001818,1163.8840165999718,0,inactive,47.1,1163.8842470999807,1167.386167100165,46.500000000000014,3.478,,,,,,,,,,,,,,,,,,,,,,,,,,,,,,,,,,,1090.6169825000688,1125.2503372002393,,,sub-070,47.1,44.0,46.2,COM3,2025-11-17_13h46.09.747,2024_RDpaindiscrimination_maintask,2023.2.3,59.992500866322054,2025-11-17 13h46.34.014724 -0500,
1,0,1,0,1,0,1,0,,,,,,,,,,,,,1167.4007149999961,,,,,,,,1167.3870311002247,1172.3841683999635,1172.3841738002375,1172.400713399984,1184.3845029999502,1,active,44.0,1184.3846398000605,1186.0194401000626,0.0,1.615,1184.4177851998247,,,,,,,,,,,,,,,,,,,,,,,,,,,,,,,,,,,,,,sub-070,47.1,44.0,46.2,COM3,2025-11-17_13h46.09.747,2024_RDpaindiscrimination_maintask,2023.2.3,59.992500866322054,2025-11-17 13h46.34.014724 -0500,
1,0,1,0,2,0,2,0,,,,,,,,,,,,,1186.034357599914,,,,,,,,1186.0202405001037,1191.017754800152,1191.0177612998523,1191.0342741999775,1203.0180664001964,2,inactive,47.1,1203.0182213000953,1206.9374653999694,50.4999999999999,3.899,1203.0511385002173,,,,,,,,,,,,,,,,,,,,,,,,,,,,,,,,,,,,,,sub-070,47.1,44.0,46.2,COM3,2025-11-17_13h46.09.747,2024_RDpaindiscrimination_maintask,2023.2.3,59.992500866322054,2025-11-17 13h46.34.014724 -0500,
1,0,1,0,3,0,3,0,,,,,,,,,,,,,1206.951221600175,,,,,,,,1206.9382286001928,1211.934693600051,1211.93470050022,1211.9512149002403,1223.935022099875,3,active,44.0,1223.9351586000994,1227.10345220007,7.0000000000000595,3.148,1223.968006500043,,,,,,,,,,,,,,,,,,,,,,,,,,,,,,,,,,,,,,sub-070,47.1,44.0,46.2,COM3,2025-11-17_13h46.09.747,2024_RDpaindiscrimination_maintask,2023.2.3,59.992500866322054,2025-11-17 13h46.34.014724 -0500,
1,0,1,0,4,0,4,0,,,,,,,,,,,,,1227.1181656001136,,,,,,,,1227.104194200132,1232.1015983000398,1232.1016040001996,1232.1181378001347,1244.102072100155,0,active,44.0,1244.1022065998986,1245.4365202002227,0.0,1.315,1244.1350675998256,,,,,,,,,,,,,,,,,,,,,,,,,,,,,,,,,,,,,,sub-070,47.1,44.0,46.2,COM3,2025-11-17_13h46.09.747,2024_RDpaindiscrimination_maintask,2023.2.3,59.992500866322054,2025-11-17 13h46.34.014724 -0500,
1,0,1,0,5,0,5,0,,,,,,,,,,,,,1245.4517874000594,,,,,,,,1245.4372733002529,1250.4353244998492,1250.4353300998919,1250.45183120016,1262.4355283998884,1,inactive,47.1,1262.4356654002331,1264.837394400034,54.50000000000006,2.382,1262.468606499955,,,,,,,,,,,,,,,,,,,,,,,,,,,,,,,,,,,,,,sub-070,47.1,44.0,46.2,COM3,2025-11-17_13h46.09.747,2024_RDpaindiscrimination_maintask,2023.2.3,59.992500866322054,2025-11-17 13h46.34.014724 -0500,
1,0,1,0,6,0,6,0,,,,,,,,,,,,,1264.85201589996,,,,,,,,1264.837632600218,1269.835550100077,1269.8355562998913,1269.8520793002099,1281.8358912002295,2,inactive,47.1,1281.8360243001953,1285.7710859002545,50.4999999999999,3.916,1281.86890459992,,,,,,,,,,,,,,,,,,,,,,,,,,,,,,,,,,,,,,sub-070,47.1,44.0,46.2,COM3,2025-11-17_13h46.09.747,2024_RDpaindiscrimination_maintask,2023.2.3,59.992500866322054,2025-11-17 13h46.34.014724 -0500,
1,0,1,0,7,0,7,0,,,,,,,,,,,,,1285.7856219001114,,,,,,,,1285.771863100119,1290.7691792999394,1290.7691863002256,1290.785685900133,1302.769474199973,3,active,44.0,1302.7696090000682,1306.7048944998533,0.0,3.915,1302.8024969999678,,,,,,,,,,,,,,,,,,,,,,,,,,,,,,,,,,,,,,sub-070,47.1,44.0,46.2,COM3,2025-11-17_13h46.09.747,2024_RDpaindiscrimination_maintask,2023.2.3,59.992500866322054,2025-11-17 13h46.34.014724 -0500,
1,0,1,0,8,0,8,0,,,,,,,,,,,,,1306.719223999884,,,,,,,,1306.705683699809,1311.7027865001,1311.7027924000286,1311.7192803998478,1323.7030021999963,0,active,44.0,1323.7031392999925,1327.772637899965,0.0,4.05,1323.7360085998662,,,,,,,,,,,,,,,,,,,,,,,,,,,,,,,,,,,,,,sub-070,47.1,44.0,46.2,COM3,2025-11-17_13h46.09.747,2024_RDpaindiscrimination_maintask,2023.2.3,59.992500866322054,2025-11-17 13h46.34.014724 -0500,
1,0,1,0,9,0,9,0,,,,,,,,,,,,,1327.7861032001674,,,,,,,,1327.7734032999724,1332.7695651999675,1332.7695710002445,1332.786093799863,1344.7700094999745,1,inactive,47.1,1344.770146700088,1347.2051118998788,47.49999999999997,2.415,1344.8030400001444,,,,,,,,,,,,,,,,,,,,,,,,,,,,,,,,,,,,,,sub-070,47.1,44.0,46.2,COM3,2025-11-17_13h46.09.747,2024_RDpaindiscrimination_maintask,2023.2.3,59.992500866322054,2025-11-17 13h46.34.014724 -0500,
1,0,1,0,10,0,10,0,,,,,,,,,,,,,1347.21965380013,,,,,,,,1347.2053576000035,1352.2031442997977,1352.2031503999606,1352.2196793002076,1364.203513899818,2,active,44.0,1364.2036513001658,1368.022601199802,0.0,3.799,1364.236502900254,,,,,,,,,,,,,,,,,,,,,,,,,,,,,,,,,,,,,,sub-070,47.1,44.0,46.2,COM3,2025-11-17_13h46.09.747,2024_RDpaindiscrimination_maintask,2023.2.3,59.992500866322054,2025-11-17 13h46.34.014724 -0500,
1,0,1,0,11,0,11,0,,,,,,,,,,,,,1368.0366676999256,,,,,,,,1368.0233632000163,1373.02008139994,1373.0200873999856,1373.036612099968,1385.0205167001113,3,inactive,47.1,1385.0206536999904,1388.3214958999306,52.49999999999992,3.281,1385.0535436999053,,,,,,,,,,,,,,,,,,,,,,,,,,,,,,,,,,,,,,sub-070,47.1,44.0,46.2,COM3,2025-11-17_13h46.09.747,2024_RDpaindiscrimination_maintask,2023.2.3,59.992500866322054,2025-11-17 13h46.34.014724 -0500,
1,0,1,0,12,0,12,0,,,,,,,,,,,,,1388.3368834001012,,,,,,,,1388.3222638000734,1393.3203802001663,1393.3203858998604,1393.3369057001546,1405.32069949992,0,inactive,47.1,1405.3208372001536,1409.0736040999182,35.000000000000014,3.733,1405.3541870000772,,,,,,,,,,,,,,,,,,,,,,,,,,,,,,,,,,,,,,sub-070,47.1,44.0,46.2,COM3,2025-11-17_13h46.09.747,2024_RDpaindiscrimination_maintask,2023.2.3,59.992500866322054,2025-11-17 13h46.34.014724 -0500,
1,0,1,0,13,0,13,0,,,,,,,,,,,,,1409.0872034002095,,,,,,,,1409.0743867000565,1414.0706536001526,1414.0706599000841,1414.0872080000117,1426.0709645999596,1,active,44.0,1426.071111000143,1429.9387447000481,0.0,3.847,1426.1039920998737,,,,,,,,,,,,,,,,,,,,,,,,,,,,,,,,,,,,,,sub-070,47.1,44.0,46.2,COM3,2025-11-17_13h46.09.747,2024_RDpaindiscrimination_maintask,2023.2.3,59.992500866322054,2025-11-17 13h46.34.014724 -0500,
1,0,1,0,14,0,14,0,,,,,,,,,,,,,1429.9540878999978,,,,,,,,1429.939493900165,1434.937589299865,1434.937595500145,1434.954111199826,1446.9379854998551,2,active,44.0,1446.9381233998574,1449.5067356000654,0.0,2.549,1446.9710213001817,,,,,,,,,,,,,,,,,,,,,,,,,,,,,,,,,,,,,,sub-070,47.1,44.0,46.2,COM3,2025-11-17_13h46.09.747,2024_RDpaindiscrimination_maintask,2023.2.3,59.992500866322054,2025-11-17 13h46.34.014724 -0500,
1,0,1,0,15,0,15,0,,,,,,,,,,,,,1449.5209833001718,,,,,,,,1449.5075039998628,1454.5044598001987,1454.50446560001,1454.52099739993,1466.5048858998343,3,inactive,47.1,1466.5050234999508,1468.6568189999089,54.00000000000002,2.132,1466.5378900999203,,,,,,,,,,,,,,,,,,,,,,,,,,,,,,,,,,,,,,sub-070,47.1,44.0,46.2,COM3,2025-11-17_13h46.09.747,2024_RDpaindiscrimination_maintask,2023.2.3,59.992500866322054,2025-11-17 13h46.34.014724 -0500,
1,0,1,0,,,,,0,0,0,0,0,0,0,0,,,,,1471.9545950000174,,,,,,1471.5718330000527,1471.9381110998802,,,,,,0,active,47.1,1488.9382650000043,1492.0899458001368,40.50000000000011,3.132,,1468.6573568000458,1468.671306299977,1471.5715040001087,1471.938368999865,1476.9380851997994,1476.9380924999714,1476.9546654000878,,1488.9382571000606,,,,,,,,,,,,,,,,,,,,,,,,,,,,,sub-070,47.1,44.0,46.2,COM3,2025-11-17_13h46.09.747,2024_RDpaindiscrimination_maintask,2023.2.3,59.992500866322054,2025-11-17 13h46.34.014724 -0500,
1,0,1,0,,,,,0,0,0,0,1,0,1,0,,,,,1492.104804100003,,,,,,,,,,,,,1,inactive,47.1,1509.0886615002528,1512.9576359000057,53.0000000000001,3.849,,,,,1492.0907135000452,1497.0884803999215,1497.0884869000874,1497.104997599963,1509.1216970998794,1509.0886543998495,,,,,,,,,,,,,,,,,,,,,,,,,,,,,sub-070,47.1,44.0,46.2,COM3,2025-11-17_13h46.09.747,2024_RDpaindiscrimination_maintask,2023.2.3,59.992500866322054,2025-11-17 13h46.34.014724 -0500,
1,0,1,0,,,,,0,0,0,0,,,,,0,0,0,0,1514.6050626002252,,,,,,,,,,,,,2,inactive,,,,,,,,,,,,,,,,1512.9581825002097,1514.5886401999742,1514.5889409999363,1519.5885951998644,1519.588602299802,1519.6052286000922,1527.588629799895,1527.588629799895,1530.555332600139,1530.588638199959,1530.588638199959,1530.5721164001152,4.34,4.46,434,446,8,1.2,0.75,pic-present,0,n,1.135417700279504,None,,,,,sub-070,47.1,44.0,46.2,COM3,2025-11-17_13h46.09.747,2024_RDpaindiscrimination_maintask,2023.2.3,59.992500866322054,2025-11-17 13h46.34.014724 -0500,
1,0,1,0,,,,,0,0,0,0,,,,,1,0,1,0,1530.588638199959,,,,,,,,,,,,,3,active,,,,,,,,,,,,,,,,,,1530.5726783000864,1535.572162200231,1535.5721697998233,1535.588736299891,1543.5721249999478,1543.5721249999478,1546.5388456000946,1546.5721674999222,1546.5721674999222,1546.5556554999202,4.47,4.33,447,433,8,1.2,0.75,pic-present,1,m,0.803768299985677,None,,,,,sub-070,47.1,44.0,46.2,COM3,2025-11-17_13h46.09.747,2024_RDpaindiscrimination_maintask,2023.2.3,59.992500866322054,2025-11-17 13h46.34.014724 -0500,
1,0,1,0,,,,,0,0,0,0,,,,,2,0,2,0,1546.5721674999222,,,,,,,,,,,,,0,inactive,,,,,,,,,,,,,,,,,,1546.5561223998666,1551.5557641000487,1551.5557709001005,1551.5722472001798,1559.5558060002513,1559.5558060002513,1562.5223455000669,1562.5556804998778,1562.5556804998778,1562.5392529000528,3.87,4.93,387,493,8,1.2,0.75,pic-absent,0,n,0.9720168001949787,None,,,,,sub-070,47.1,44.0,46.2,COM3,2025-11-17_13h46.09.747,2024_RDpaindiscrimination_maintask,2023.2.3,59.992500866322054,2025-11-17 13h46.34.014724 -0500,
1,0,1,0,,,,,0,0,0,0,,,,,3,0,3,0,1562.5556804998778,,,,,,,,,,,,,1,active,,,,,,,,,,,,,,,,,,1562.539712099824,1567.5393913998269,1567.5393993002363,1567.5558005999774,1575.5393289998174,1575.5393289998174,1578.505958700087,1578.539286899846,1578.539286899846,1578.5227796002291,3.67,5.13,367,513,8,1.2,0.75,pic-present,1,m,1.0245338999666274,None,,,,,sub-070,47.1,44.0,46.2,COM3,2025-11-17_13h46.09.747,2024_RDpaindiscrimination_maintask,2023.2.3,59.992500866322054,2025-11-17 13h46.34.014724 -0500,
1,0,1,0,,,,,1,0,1,0,0,0,0,0,,,,,1579.6893016998656,,,,,,1578.5232982002199,1579.672935700044,,,,,,2,inactive,47.1,1596.6731822998263,1601.1251107999124,52.499999999999886,4.432,,,,,1579.673224600032,1584.6728308000602,1584.6728378999978,1584.6893708999269,1596.7061931001954,1596.673174300231,,,,,,,,,,,,,,,,,,,,,,,,,,,,,sub-070,47.1,44.0,46.2,COM3,2025-11-17_13h46.09.747,2024_RDpaindiscrimination_maintask,2023.2.3,59.992500866322054,2025-11-17 13h46.34.014724 -0500,
1,0,1,0,,,,,1,0,1,0,1,0,1,0,,,,,1601.1395854000002,,,,,,,,,,,,,3,active,47.1,1618.1234393999912,1621.8258091998287,56.99999999999995,3.682,,,,,1601.1258200001903,1606.1231345999986,1606.1231415001675,1606.139644099865,1618.1564198001288,1618.1234313999303,,,,,,,,,,,,,,,,,,,,,,,,,,,,,sub-070,47.1,44.0,46.2,COM3,2025-11-17_13h46.09.747,2024_RDpaindiscrimination_maintask,2023.2.3,59.992500866322054,2025-11-17 13h46.34.014724 -0500,
1,0,1,0,,,,,1,0,1,0,,,,,0,0,0,0,1623.4065243001096,,,,,,,,,,,,,0,inactive,,,,,,,,,,,,,,,,1621.8263115999289,1623.3900839998387,1623.3903902000748,1628.3901030002162,1628.39011090016,1628.4065987002105,1636.3900381000713,1636.3900381000713,1639.3567380998284,1639.3900748998858,1639.3900748998858,1639.373546199873,4.18,4.62,418,462,8,1.2,0.75,pic-absent,0,n,1.0938469995744526,None,,,,,sub-070,47.1,44.0,46.2,COM3,2025-11-17_13h46.09.747,2024_RDpaindiscrimination_maintask,2023.2.3,59.992500866322054,2025-11-17 13h46.34.014724 -0500,
1,0,1,0,,,,,1,0,1,0,,,,,1,0,1,0,1639.3900748998858,,,,,,,,,,,,,1,active,,,,,,,,,,,,,,,,,,1639.374085899908,1644.3736049998552,1644.373611399904,1644.3901364002377,1652.3735698000528,1652.3735698000528,1655.3403274999,1655.3736085998826,1655.3736085998826,1655.3571533998474,3.93,4.87,393,487,8,1.2,0.75,pic-absent,1,m,0.3666628999635577,None,,,,,sub-070,47.1,44.0,46.2,COM3,2025-11-17_13h46.09.747,2024_RDpaindiscrimination_maintask,2023.2.3,59.992500866322054,2025-11-17 13h46.34.014724 -0500,
1,0,1,0,,,,,1,0,1,0,,,,,2,0,2,0,1655.3736085998826,,,,,,,,,,,,,2,active,,,,,,,,,,,,,,,,,,1655.3576643001288,1660.3571601998992,1660.3571664998308,1660.3736751000397,1668.3571454999037,1668.3571454999037,1671.323842199985,1671.3571518999524,1671.3571518999524,1671.3406500997953,3.79,5.01,379,501,8,1.2,0.75,pic-present,1,m,0.6989341001026332,None,,,,,sub-070,47.1,44.0,46.2,COM3,2025-11-17_13h46.09.747,2024_RDpaindiscrimination_maintask,2023.2.3,59.992500866322054,2025-11-17 13h46.34.014724 -0500,
1,0,1,0,,,,,1,0,1,0,,,,,3,0,3,0,1671.3571518999524,,,,,,,,,,,,,3,inactive,,,,,,,,,,,,,,,,,,1671.3411301001906,1676.3406952000223,1676.3407017998397,1676.3572130999528,1684.340653900057,1684.340653900057,1687.3073503002524,1687.340714899823,1687.340714899823,1687.3241679999046,4.23,4.57,423,457,8,1.2,0.75,pic-present,1,m,0.391809499822557,None,,,,,sub-070,47.1,44.0,46.2,COM3,2025-11-17_13h46.09.747,2024_RDpaindiscrimination_maintask,2023.2.3,59.992500866322054,2025-11-17 13h46.34.014724 -0500,
1,0,1,0,,,,,2,0,2,0,0,0,0,0,,,,,1689.2574126999825,,,,,,1687.324663599953,1689.2409292999655,,,,,,0,active,47.1,1706.2411984000355,1708.6940711000934,34.50000000000013,2.433,,,,,1689.2411923999898,1694.2409113999456,1694.2409181999974,1694.2574459002353,1706.2742034001276,1706.2411902998574,,,,,,,,,,,,,,,,,,,,,,,,,,,,,sub-070,47.1,44.0,46.2,COM3,2025-11-17_13h46.09.747,2024_RDpaindiscrimination_maintask,2023.2.3,59.992500866322054,2025-11-17 13h46.34.014724 -0500,
1,0,1,0,,,,,2,0,2,0,1,0,1,0,,,,,1708.7076711999252,,,,,,,,,,,,,1,inactive,47.1,1725.6914833998308,1728.6098805000074,61.00000000000003,2.898,,,,,1708.6947833001614,1713.6911245002411,1713.6911312001757,1713.7077024998143,1725.7245884002186,1725.691475099884,,,,,,,,,,,,,,,,,,,,,,,,,,,,,sub-070,47.1,44.0,46.2,COM3,2025-11-17_13h46.09.747,2024_RDpaindiscrimination_maintask,2023.2.3,59.992500866322054,2025-11-17 13h46.34.014724 -0500,
1,0,1,0,,,,,2,0,2,0,,,,,0,0,0,0,1730.1078686998226,,,,,,,,,,,,,2,active,,,,,,,,,,,,,,,,1728.6104017002508,1730.0914274002425,1730.0917350002564,1735.0914151999168,1735.0914219999686,1735.1080036000349,1743.091435099952,1743.091435099952,1746.0580735001713,1746.091407599859,1746.091407599859,1746.074910600204,4.02,4.78,401,478,8,1.2,0.75,pic-absent,0,n,1.1248413999564946,None,,,,,sub-070,47.1,44.0,46.2,COM3,2025-11-17_13h46.09.747,2024_RDpaindiscrimination_maintask,2023.2.3,59.992500866322054,2025-11-17 13h46.34.014724 -0500,
1,0,1,0,,,,,2,0,2,0,,,,,1,0,1,0,1746.091407599859,,,,,,,,,,,,,3,inactive,,,,,,,,,,,,,,,,,,1746.0755408001132,1751.0749297998846,1751.0749364998192,1751.0914711998776,1759.074912399985,1759.074912399985,1762.0416170000099,1762.0749450000003,1762.0749450000003,1762.0584248001687,3.32,5.48,332,548,8,1.2,0.75,pic-present,1,m,0.43319749971851707,None,,,,,sub-070,47.1,44.0,46.2,COM3,2025-11-17_13h46.09.747,2024_RDpaindiscrimination_maintask,2023.2.3,59.992500866322054,2025-11-17 13h46.34.014724 -0500,
1,0,1,0,,,,,2,0,2,0,,,,,2,0,2,0,1762.0749450000003,,,,,,,,,,,,,0,inactive,,,,,,,,,,,,,,,,,,1762.0589128998108,1767.058475300204,1767.0584825999103,1767.0750208999962,1775.0584374000318,1775.0584374000318,1778.025147399865,1778.0584861999378,1778.0584861999378,1778.0419709999114,4.11,4.69,411,469,8,1.2,0.75,pic-present,0,n,0.39446460036560893,None,,,,,sub-070,47.1,44.0,46.2,COM3,2025-11-17_13h46.09.747,2024_RDpaindiscrimination_maintask,2023.2.3,59.992500866322054,2025-11-17 13h46.34.014724 -0500,
1,0,1,0,,,,,2,0,2,0,,,,,3,0,3,0,1778.0584861999378,,,,,,,,,,,,,1,active,,,,,,,,,,,,,,,,,,1778.042448000051,1783.042128900066,1783.0421364000067,1783.0586880999617,1791.0421044998802,1791.0421044998802,1794.0088157001883,1794.042183100246,1794.042183100246,1794.0256317998283,3.79,5.01,379,501,8,1.2,0.75,pic-absent,1,m,0.5264174002222717,None,,,,,sub-070,47.1,44.0,46.2,COM3,2025-11-17_13h46.09.747,2024_RDpaindiscrimination_maintask,2023.2.3,59.992500866322054,2025-11-17 13h46.34.014724 -0500,
1,0,1,0,,,,,3,0,3,0,0,0,0,0,,,,,1795.5920851998962,,,,,,1794.0261150998995,1795.5756053002551,,,,,,2,inactive,47.1,1812.5758895999752,1814.6442419998348,57.00000000000004,2.049,,,,,1795.5758742000908,1800.5757083999924,1800.5757153001614,1800.5922290999442,1812.6089359000325,1812.5758814001456,,,,,,,,,,,,,,,,,,,,,,,,,,,,,sub-070,47.1,44.0,46.2,COM3,2025-11-17_13h46.09.747,2024_RDpaindiscrimination_maintask,2023.2.3,59.992500866322054,2025-11-17 13h46.34.014724 -0500,
1,0,1,0,,,,,3,0,3,0,1,0,1,0,,,,,1814.6591088999994,,,,,,,,,,,,,3,active,47.1,1831.6429858999327,1834.3458711002022,59.49999999999994,2.683,,,,,1814.6449442999437,1819.64265970001,1819.6426654998213,1819.6591499000788,1831.6759681999683,1831.642978399992,,,,,,,,,,,,,,,,,,,,,,,,,,,,,sub-070,47.1,44.0,46.2,COM3,2025-11-17_13h46.09.747,2024_RDpaindiscrimination_maintask,2023.2.3,59.992500866322054,2025-11-17 13h46.34.014724 -0500,
1,0,1,0,,,,,3,0,3,0,,,,,0,0,0,0,1836.0592706999741,,,,,,,,,,,,,0,active,,,,,,,,,,,,,,,,1834.3463953002356,1836.0428581000306,1836.0431480999105,1841.0428014998324,1841.0428078998812,1841.0593346999958,1849.0427720998414,1849.0427720998414,1852.0095669999719,1852.0428519998677,1852.0428519998677,1852.0264369002543,3.61,5.19,361,519,8,1.2,0.75,pic-present,0,n,0.29747509956359863,None,,,,,sub-070,47.1,44.0,46.2,COM3,2025-11-17_13h46.09.747,2024_RDpaindiscrimination_maintask,2023.2.3,59.992500866322054,2025-11-17 13h46.34.014724 -0500,
1,0,1,0,,,,,3,0,3,0,,,,,1,0,1,0,1852.0428519998677,,,,,,,,,,,,,1,inactive,,,,,,,,,,,,,,,,,,1852.0270182001404,1857.026339000091,1857.0263453000225,1857.042875399813,1865.0263073001988,1865.0263073001988,1867.9930138001218,1868.0263563999906,1868.0263563999906,1868.0098446998745,4.2,4.6,420,459,8,1.2,0.75,pic-absent,1,m,0.5422074999660254,None,,,,,sub-070,47.1,44.0,46.2,COM3,2025-11-17_13h46.09.747,2024_RDpaindiscrimination_maintask,2023.2.3,59.992500866322054,2025-11-17 13h46.34.014724 -0500,
1,0,1,0,,,,,3,0,3,0,,,,,2,0,2,0,1868.0263563999906,,,,,,,,,,,,,2,active,,,,,,,,,,,,,,,,,,1868.0103676002473,1873.0098712001927,1873.0098780002445,1873.0264094001614,1881.009843800217,1881.009843800217,1883.976563300006,1884.0099412999116,1884.0099412999116,1883.9933710000478,4.13,4.67,413,467,8,1.2,0.75,pic-absent,1,m,0.6621852000243962,None,,,,,sub-070,47.1,44.0,46.2,COM3,2025-11-17_13h46.09.747,2024_RDpaindiscrimination_maintask,2023.2.3,59.992500866322054,2025-11-17 13h46.34.014724 -0500,
1,0,1,0,,,,,3,0,3,0,,,,,3,0,3,0,1884.0099412999116,,,,,,,,,,,,,3,inactive,,,,,,,,,,,,,,,,,,1883.9938039002009,1888.993418800179,1888.9934253999963,1889.0099539002404,1896.993434399832,1896.993434399832,1899.9601703998633,1899.9934661001898,1899.9934661001898,1899.976978499908,4.03,4.77,403,476,8,1.2,0.75,pic-absent,1,m,0.2992425002157688,None,,,,,sub-070,47.1,44.0,46.2,COM3,2025-11-17_13h46.09.747,2024_RDpaindiscrimination_maintask,2023.2.3,59.992500866322054,2025-11-17 13h46.34.014724 -0500,
,,,,,,,,,,,,,,,,,,,,,,,,,,,,,,,,,,,,,,,,,,,,,,,,,,,,,,,,,,,,,,,,,,,,,,,,,,1899.9774466999806,1901.8104562000372,1901.810475599952,1911.8104052999988,,,,,,,,,,,
