trials.thisRepN,trials.thisTrialN,trials.thisN,trials.thisIndex,loop_test.thisRepN,loop_test.thisTrialN,loop_test.thisN,loop_test.thisIndex,loop_eval_discri.thisRepN,loop_eval_discri.thisTrialN,loop_eval_discri.thisN,loop_eval_discri.thisIndex,loop_eval.thisRepN,loop_eval.thisTrialN,loop_eval.thisN,loop_eval.thisIndex,loop_discri.thisRepN,loop_discri.thisTrialN,loop_discri.thisN,loop_discri.thisIndex,thisRow.t,notes,Set_up.started,Set_up.stopped,electrode_check.started,electrode_check.stopped,instructions_eval.started,instructions_eval.stopped,pause_5_test.started,pause_5_test.stopped,Phase_Test.started,thermode_locali.started,Phase_Test.stopped,loca_thermode,condition,temp_trial_sent,eval_douleur.started,eval_douleur.stopped,ratingScale.response,ratingScale.rt,thermode_locali.stopped,Fin_test.started,text.started,Fin_test.stopped,pause_5_EVA.started,pause_5_EVA.stopped,tâche_EVA.started,thermode_locali_EVA.started,tâche_EVA.stopped,thermode_locali_EVA.stopped,instructions_discrim.started,instructions_discrim.stopped,pause_5_pic.started,pause_5_pic.stopped,tâche_PIC.started,thermode_locali_pic.started,percu_or.started,responser.started,thermode_locali_pic.stopped,percu_or.stopped,responser.stopped,tâche_PIC.stopped,dur_plateau1,dur_plateau2,dur_plateau1_sent,dur_plateau2_sent,start_plateau_2_resp,dur_pic,dur_rise,pic_presence,pic_response,discrimin_resp.keys,discrimin_resp.rt,discrimin_resp.duration,break_entre_bloc.started,break_entre_bloc.stopped,merci.started,merci.stopped,participant,temp_flat,temp_active,temp_pic_set,com_thermode,date,expName,psychopyVersion,frameRate,expStart,
0,0,0,0,0,0,0,0,,,,,,,,,,,,,266.3836002999451,,0.014085500035434961,245.4003395999316,245.40074710000772,246.88367030001245,246.8836768999463,266.3505118000321,266.3507947999751,271.36700700002257,271.36701239994727,271.3836176999612,283.36705589992926,0,active,44.6,283.36728719994426,288.63580009993166,36.49999999999998,5.244,,,,,,,,,,,,,,,,,,,,,,,,,,,,,,,,,,,,,,,sub-073,46.4,44.6,47.35,COM3,2026-02-13_15h27.34.637,2024_RDpaindiscrimination_maintask,2023.2.3,60.014967749115065,2026-02-13 15h28.04.083927 -0500,
0,0,0,0,1,0,1,0,,,,,,,,,,,,,288.6505350000225,,,,,,,,288.6366673000157,293.6341149000218,293.63412069994956,293.65056440001354,305.63434640003834,1,inactive,46.4,305.63448499992955,308.1197708999971,45.00000000000006,2.465,305.66734689997975,,,,,,,,,,,,,,,,,,,,,,,,,,,,,,,,,,,,,,sub-073,46.4,44.6,47.35,COM3,2026-02-13_15h27.34.637,2024_RDpaindiscrimination_maintask,2023.2.3,60.014967749115065,2026-02-13 15h28.04.083927 -0500,
0,0,0,0,2,0,2,0,,,,,,,,,,,,,308.1340457999613,,,,,,,,308.12055649992544,313.11758089996874,313.11758710001595,313.1341163000325,325.1179586999351,2,inactive,46.4,325.11809939995874,328.70317949994933,36.00000000000002,3.565,325.1509123999858,,,,,,,,,,,,,,,,,,,,,,,,,,,,,,,,,,,,,,sub-073,46.4,44.6,47.35,COM3,2026-02-13_15h27.34.637,2024_RDpaindiscrimination_maintask,2023.2.3,60.014967749115065,2026-02-13 15h28.04.083927 -0500,
0,0,0,0,3,0,3,0,,,,,,,,,,,,,328.7176388000371,,,,,,,,328.70396990003064,333.7010988999391,333.7011056999909,333.717635900015,345.7012877999805,3,active,44.6,345.70142559998203,347.5523831000319,36.49999999999998,1.831,345.7343690999551,,,,,,,,,,,,,,,,,,,,,,,,,,,,,,,,,,,,,,sub-073,46.4,44.6,47.35,COM3,2026-02-13_15h27.34.637,2024_RDpaindiscrimination_maintask,2023.2.3,60.014967749115065,2026-02-13 15h28.04.083927 -0500,
0,0,0,0,4,0,4,0,,,,,,,,,,,,,347.56778169993777,,,,,,,,347.553195699933,352.5513966999715,352.55140260001644,352.5679017000366,364.5515501999762,0,inactive,46.4,364.55169849994127,367.6538229000289,63.49999999999986,3.082,364.58452389994636,,,,,,,,,,,,,,,,,,,,,,,,,,,,,,,,,,,,,,sub-073,46.4,44.6,47.35,COM3,2026-02-13_15h27.34.637,2024_RDpaindiscrimination_maintask,2023.2.3,60.014967749115065,2026-02-13 15h28.04.083927 -0500,
0,0,0,0,5,0,5,0,,,,,,,,,,,,,367.6680000999477,,,,,,,,367.6545809999807,372.65152189997025,372.6515291000251,372.66805320000276,384.651707299985,1,active,44.6,384.65185150003526,386.46997680002823,38.50000000000008,1.798,384.68473490001634,,,,,,,,,,,,,,,,,,,,,,,,,,,,,,,,,,,,,,sub-073,46.4,44.6,47.35,COM3,2026-02-13_15h27.34.637,2024_RDpaindiscrimination_maintask,2023.2.3,60.014967749115065,2026-02-13 15h28.04.083927 -0500,
0,0,0,0,6,0,6,0,,,,,,,,,,,,,386.48488969996106,,,,,,,,386.47069550002925,391.46841900004074,391.4684254999738,391.48488170001656,403.46858380001504,2,inactive,46.4,403.4687228000257,405.40480000001844,60.50000000000007,1.916,403.50160680001136,,,,,,,,,,,,,,,,,,,,,,,,,,,,,,,,,,,,,,sub-073,46.4,44.6,47.35,COM3,2026-02-13_15h27.34.637,2024_RDpaindiscrimination_maintask,2023.2.3,60.014967749115065,2026-02-13 15h28.04.083927 -0500,
0,0,0,0,7,0,7,0,,,,,,,,,,,,,405.4183554999763,,,,,,,,405.4055515000364,410.40191769995727,410.40192470001057,410.4184178999858,422.4022488000337,3,inactive,46.4,422.4023874999257,424.2531986000249,60.000000000000036,1.831,422.43524579994846,,,,,,,,,,,,,,,,,,,,,,,,,,,,,,,,,,,,,,sub-073,46.4,44.6,47.35,COM3,2026-02-13_15h27.34.637,2024_RDpaindiscrimination_maintask,2023.2.3,60.014967749115065,2026-02-13 15h28.04.083927 -0500,
0,0,0,0,8,0,8,0,,,,,,,,,,,,,424.26862420002,,,,,,,,424.2534534999868,429.2521197999595,429.2521254000021,429.26867699995637,441.25243039999623,0,active,44.6,441.2525672999909,444.3209497999633,31.50000000000004,3.048,441.28545750002377,,,,,,,,,,,,,,,,,,,,,,,,,,,,,,,,,,,,,,sub-073,46.4,44.6,47.35,COM3,2026-02-13_15h27.34.637,2024_RDpaindiscrimination_maintask,2023.2.3,60.014967749115065,2026-02-13 15h28.04.083927 -0500,
0,0,0,0,9,0,9,0,,,,,,,,,,,,,444.33554260001983,,,,,,,,444.3217053000117,449.3190226999577,449.3190290000057,449.3355561000062,461.31931449996773,1,inactive,46.4,461.31945239997003,464.73718799999915,68.49999999999983,3.398,461.352351599955,,,,,,,,,,,,,,,,,,,,,,,,,,,,,,,,,,,,,,sub-073,46.4,44.6,47.35,COM3,2026-02-13_15h27.34.637,2024_RDpaindiscrimination_maintask,2023.2.3,60.014967749115065,2026-02-13 15h28.04.083927 -0500,
0,0,0,0,10,0,10,0,,,,,,,,,,,,,464.75247409997974,,,,,,,,464.73795510001946,469.7359127999516,469.7359185999958,469.7524550999515,481.7362318999367,2,active,44.6,481.736369799939,483.30430339998566,30.00000000000007,1.547,481.7692365000257,,,,,,,,,,,,,,,,,,,,,,,,,,,,,,,,,,,,,,sub-073,46.4,44.6,47.35,COM3,2026-02-13_15h27.34.637,2024_RDpaindiscrimination_maintask,2023.2.3,60.014967749115065,2026-02-13 15h28.04.083927 -0500,
0,0,0,0,11,0,11,0,,,,,,,,,,,,,483.31922359997407,,,,,,,,483.30453029996715,488.30278080003336,488.30278669996187,488.31929529993795,500.3031287000049,3,active,44.6,500.3032647999935,502.10488909995183,35.49999999999996,1.781,500.3361428999342,,,,,,,,,,,,,,,,,,,,,,,,,,,,,,,,,,,,,,sub-073,46.4,44.6,47.35,COM3,2026-02-13_15h27.34.637,2024_RDpaindiscrimination_maintask,2023.2.3,60.014967749115065,2026-02-13 15h28.04.083927 -0500,
0,0,0,0,12,0,12,0,,,,,,,,,,,,,502.11949179996736,,,,,,,,502.1056578999851,507.10301820002496,507.1030236999504,507.1195682999678,519.1033067000099,0,inactive,46.4,519.1034423999954,521.271742300014,63.49999999999993,2.149,519.1363526999485,,,,,,,,,,,,,,,,,,,,,,,,,,,,,,,,,,,,,,sub-073,46.4,44.6,47.35,COM3,2026-02-13_15h27.34.637,2024_RDpaindiscrimination_maintask,2023.2.3,60.014967749115065,2026-02-13 15h28.04.083927 -0500,
0,0,0,0,13,0,13,0,,,,,,,,,,,,,521.2863828999689,,,,,,,,521.2725260999287,526.2698867999716,526.2698931000195,526.2864348000148,538.2701313999714,1,active,44.6,538.2702680999646,540.606202099938,41.00000000000014,2.316,538.3031985999551,,,,,,,,,,,,,,,,,,,,,,,,,,,,,,,,,,,,,,sub-073,46.4,44.6,47.35,COM3,2026-02-13_15h27.34.637,2024_RDpaindiscrimination_maintask,2023.2.3,60.014967749115065,2026-02-13 15h28.04.083927 -0500,
0,0,0,0,14,0,14,0,,,,,,,,,,,,,540.6199148999294,,,,,,,,540.607004999998,545.6034945999272,545.603500999976,545.619976399932,557.6037469999865,2,active,44.6,557.6038834999781,560.6727115999674,35.99999999999995,3.05,557.6367674999638,,,,,,,,,,,,,,,,,,,,,,,,,,,,,,,,,,,,,,sub-073,46.4,44.6,47.35,COM3,2026-02-13_15h27.34.637,2024_RDpaindiscrimination_maintask,2023.2.3,60.014967749115065,2026-02-13 15h28.04.083927 -0500,
0,0,0,0,15,0,15,0,,,,,,,,,,,,,560.6867150999606,,,,,,,,560.6735322999302,565.6702796999598,565.6702865000116,565.6867864000378,577.6705910000019,3,inactive,46.4,577.6707253999775,579.8883640000131,76.99999999999987,2.197,577.7036684999475,,,,,,,,,,,,,,,,,,,,,,,,,,,,,,,,,,,,,,sub-073,46.4,44.6,47.35,COM3,2026-02-13_15h27.34.637,2024_RDpaindiscrimination_maintask,2023.2.3,60.014967749115065,2026-02-13 15h28.04.083927 -0500,
0,0,0,0,,,,,0,0,0,0,0,0,0,0,,,,,607.9539291999536,,,,,,606.5711433000397,607.9374909999315,,,,,,0,active,46.4,624.9375879999716,627.9395080000395,42.5,2.982,,579.8889476000331,579.9036076000193,606.5708392999368,607.937770599965,612.9374421000248,612.9374484999571,612.954020599951,624.9375800000271,,,,,,,,,,,,,,,,,,,,,,,,,,,,,,sub-073,46.4,44.6,47.35,COM3,2026-02-13_15h27.34.637,2024_RDpaindiscrimination_maintask,2023.2.3,60.014967749115065,2026-02-13 15h28.04.083927 -0500,
0,0,0,0,,,,,0,0,0,0,1,0,1,0,,,,,627.9542264000047,,,,,,,,,,,,,1,inactive,46.4,644.93805779994,647.0889921999769,63.99999999999988,2.131,,,,,627.9402225000085,632.9376863000216,632.9376928999554,632.9542445000261,644.9380493999925,644.9710105999839,,,,,,,,,,,,,,,,,,,,,,,,,,,,,sub-073,46.4,44.6,47.35,COM3,2026-02-13_15h27.34.637,2024_RDpaindiscrimination_maintask,2023.2.3,60.014967749115065,2026-02-13 15h28.04.083927 -0500,
0,0,0,0,,,,,0,0,0,0,,,,,0,0,0,0,649.0710924000014,,,,,,,,,,,,,2,inactive,,,,,,,,,,,,,,,,647.0895465000067,649.054635599954,649.0549396999413,654.05457259994,654.054578899988,654.0711586000398,662.0546024999348,662.0546024999348,665.0212480999762,665.0546486999374,665.0546486999374,665.0381114999764,4.31,4.49,430,449,8,1.2,0.75,pic-present,1,n,1.6198687000432983,None,,,,,sub-073,46.4,44.6,47.35,COM3,2026-02-13_15h27.34.637,2024_RDpaindiscrimination_maintask,2023.2.3,60.014967749115065,2026-02-13 15h28.04.083927 -0500,
0,0,0,0,,,,,0,0,0,0,,,,,1,0,1,0,665.0546486999374,,,,,,,,,,,,,3,inactive,,,,,,,,,,,,,,,,,,665.0387068999698,670.0380920999451,670.0380988999968,670.0547948000021,678.0381074999459,678.0381074999459,681.0047922999365,681.0381331000244,681.0381331000244,681.0216617999831,3.32,5.48,332,548,8,1.2,0.75,pic-absent,1,n,0.648740499978885,None,,,,,sub-073,46.4,44.6,47.35,COM3,2026-02-13_15h27.34.637,2024_RDpaindiscrimination_maintask,2023.2.3,60.014967749115065,2026-02-13 15h28.04.083927 -0500,
0,0,0,0,,,,,0,0,0,0,,,,,2,0,2,0,681.0381331000244,,,,,,,,,,,,,0,active,,,,,,,,,,,,,,,,,,681.0221299999394,686.0215847999789,686.0215918000322,686.038129099994,694.0216305999784,694.0216305999784,696.9883283999516,697.0216578999534,697.0216578999534,697.0051791999722,4.54,4.26,454,426,8,1.2,0.75,pic-absent,0,m,0.45676169998478144,None,,,,,sub-073,46.4,44.6,47.35,COM3,2026-02-13_15h27.34.637,2024_RDpaindiscrimination_maintask,2023.2.3,60.014967749115065,2026-02-13 15h28.04.083927 -0500,
0,0,0,0,,,,,0,0,0,0,,,,,3,0,3,0,697.0216578999534,,,,,,,,,,,,,1,active,,,,,,,,,,,,,,,,,,697.0056581000099,702.0051478999667,702.0051547000185,702.0217700999929,710.0051365999971,710.0051365999971,712.9718358999817,713.0051788999699,713.0051788999699,712.9886505999602,4.19,4.61,419,461,8,1.2,0.75,pic-present,1,n,0.39739599998574704,None,,,,,sub-073,46.4,44.6,47.35,COM3,2026-02-13_15h27.34.637,2024_RDpaindiscrimination_maintask,2023.2.3,60.014967749115065,2026-02-13 15h28.04.083927 -0500,
0,0,0,0,,,,,1,0,1,0,0,0,0,0,,,,,714.5551853999496,,,,,,712.9891189000336,714.5387064999668,,,,,,2,inactive,46.4,731.5389647999546,734.5243187999586,35.000000000000156,2.966,,,,,714.5390030000126,719.5387035999447,719.538710599998,719.5552104000235,731.5389572000131,731.572043000022,,,,,,,,,,,,,,,,,,,,,,,,,,,,,sub-073,46.4,44.6,47.35,COM3,2026-02-13_15h27.34.637,2024_RDpaindiscrimination_maintask,2023.2.3,60.014967749115065,2026-02-13 15h28.04.083927 -0500,
0,0,0,0,,,,,1,0,1,0,1,0,1,0,,,,,734.5387350999517,,,,,,,,,,,,,3,active,46.4,751.5225590999471,753.5406217999989,53.50000000000006,1.94,,,,,734.5250629000366,739.5221480999608,739.5221556000179,739.538679099991,751.5225512000034,751.6055996000068,,,,,,,,,,,,,,,,,,,,,,,,,,,,,sub-073,46.4,44.6,47.35,COM3,2026-02-13_15h27.34.637,2024_RDpaindiscrimination_maintask,2023.2.3,60.014967749115065,2026-02-13 15h28.04.083927 -0500,
0,0,0,0,,,,,1,0,1,0,,,,,0,0,0,0,755.0556364000076,,,,,,,,,,,,,0,inactive,,,,,,,,,,,,,,,,753.541186699993,755.0391743000364,755.0394690999528,760.0391846999992,760.0391907999292,760.0556915999623,768.0391111000208,768.0391111000208,771.0057740999619,771.0391339999624,771.0391339999624,771.0226037999382,4.43,4.37,443,437,8,1.2,0.75,pic-absent,0,m,0.5948256000410765,None,,,,,sub-073,46.4,44.6,47.35,COM3,2026-02-13_15h27.34.637,2024_RDpaindiscrimination_maintask,2023.2.3,60.014967749115065,2026-02-13 15h28.04.083927 -0500,
0,0,0,0,,,,,1,0,1,0,,,,,1,0,1,0,771.0391339999624,,,,,,,,,,,,,1,inactive,,,,,,,,,,,,,,,,,,771.0231193000218,776.0226918000262,776.0226990999654,776.0393256000243,784.0225907999557,784.0225907999557,786.98928660003,787.0226217999589,787.0226217999589,787.0061148999957,3.59,5.21,359,521,8,1.2,0.75,pic-present,1,n,0.5643029999919236,None,,,,,sub-073,46.4,44.6,47.35,COM3,2026-02-13_15h27.34.637,2024_RDpaindiscrimination_maintask,2023.2.3,60.014967749115065,2026-02-13 15h28.04.083927 -0500,
0,0,0,0,,,,,1,0,1,0,,,,,2,0,2,0,787.0226217999589,,,,,,,,,,,,,2,active,,,,,,,,,,,,,,,,,,787.0065840999596,792.0061204000376,792.0061276999768,792.0226265999954,800.0060996999964,800.0060996999964,802.9727958999574,803.006132200011,803.006132200011,802.9896464999765,4.41,4.39,441,438,8,1.2,0.75,pic-present,0,m,0.5123747999314219,None,,,,,sub-073,46.4,44.6,47.35,COM3,2026-02-13_15h27.34.637,2024_RDpaindiscrimination_maintask,2023.2.3,60.014967749115065,2026-02-13 15h28.04.083927 -0500,
0,0,0,0,,,,,1,0,1,0,,,,,3,0,3,0,803.006132200011,,,,,,,,,,,,,3,inactive,,,,,,,,,,,,,,,,,,802.9901576000266,807.9896499000024,807.9896573999431,808.0061517999275,815.9896065000212,815.9896065000212,818.9563531000167,818.9896501000039,818.9896501000039,818.9731533000013,3.43,5.37,343,537,8,1.2,0.75,pic-absent,0,m,0.6328585000010207,None,,,,,sub-073,46.4,44.6,47.35,COM3,2026-02-13_15h27.34.637,2024_RDpaindiscrimination_maintask,2023.2.3,60.014967749115065,2026-02-13 15h28.04.083927 -0500,
0,0,0,0,,,,,2,0,2,0,0,0,0,0,,,,,820.2730316999368,,,,,,818.9736121000024,820.2565765000181,,,,,,0,inactive,46.4,837.2567294000182,839.9420200999593,33.00000000000006,2.665,,,,,820.2568644999992,825.2565147000132,825.2565217999509,825.2730440000305,837.256721099955,837.2898140000179,,,,,,,,,,,,,,,,,,,,,,,,,,,,,sub-073,46.4,44.6,47.35,COM3,2026-02-13_15h27.34.637,2024_RDpaindiscrimination_maintask,2023.2.3,60.014967749115065,2026-02-13 15h28.04.083927 -0500,
0,0,0,0,,,,,2,0,2,0,1,0,1,0,,,,,839.9565717999358,,,,,,,,,,,,,1,active,46.4,856.940470600035,858.4263341999613,43.499999999999915,1.466,,,,,839.9427800999256,844.9400950999698,844.9401015000185,844.9566358999582,856.940463499981,856.9733863000292,,,,,,,,,,,,,,,,,,,,,,,,,,,,,sub-073,46.4,44.6,47.35,COM3,2026-02-13_15h27.34.637,2024_RDpaindiscrimination_maintask,2023.2.3,60.014967749115065,2026-02-13 15h28.04.083927 -0500,
0,0,0,0,,,,,2,0,2,0,,,,,0,0,0,0,859.8900003000163,,,,,,,,,,,,,2,active,,,,,,,,,,,,,,,,858.4268852999667,859.8735589999706,859.8738720000256,864.8735312999925,864.8735380999278,864.8900604000082,872.8736014999449,872.8736014999449,875.8403845999856,875.8736573000206,875.8736573000206,875.8571315000299,3.84,4.96,384,496,8,1.2,0.75,pic-present,0,m,1.0922323999693617,None,,,,,sub-073,46.4,44.6,47.35,COM3,2026-02-13_15h27.34.637,2024_RDpaindiscrimination_maintask,2023.2.3,60.014967749115065,2026-02-13 15h28.04.083927 -0500,
0,0,0,0,,,,,2,0,2,0,,,,,1,0,1,0,875.8736573000206,,,,,,,,,,,,,3,active,,,,,,,,,,,,,,,,,,875.8576528999256,880.8571725999936,880.8571792999282,880.8736100000096,888.8571940999245,888.8571940999245,891.8237910999451,891.8571571999928,891.8571571999928,891.8406143999891,3.8,5.0,380,500,8,1.2,0.75,pic-present,1,n,0.48892050003632903,None,,,,,sub-073,46.4,44.6,47.35,COM3,2026-02-13_15h27.34.637,2024_RDpaindiscrimination_maintask,2023.2.3,60.014967749115065,2026-02-13 15h28.04.083927 -0500,
0,0,0,0,,,,,2,0,2,0,,,,,2,0,2,0,891.8571571999928,,,,,,,,,,,,,0,inactive,,,,,,,,,,,,,,,,,,891.8410693999613,896.8406412999611,896.8406478000106,896.8571658999426,904.8405948999571,904.8405948999571,907.80729529995,907.8406294999877,907.8406294999877,907.8241123999469,3.54,5.26,354,526,8,1.2,0.75,pic-absent,0,m,0.42583389999344945,None,,,,,sub-073,46.4,44.6,47.35,COM3,2026-02-13_15h27.34.637,2024_RDpaindiscrimination_maintask,2023.2.3,60.014967749115065,2026-02-13 15h28.04.083927 -0500,
0,0,0,0,,,,,2,0,2,0,,,,,3,0,3,0,907.8406294999877,,,,,,,,,,,,,1,inactive,,,,,,,,,,,,,,,,,,907.8246046999702,912.8241164999781,912.8241238000337,912.8406376999337,920.8241218000185,920.8241218000185,923.7907209999394,923.8241378000239,923.8241378000239,923.8075579999713,4.16,4.64,416,463,8,1.2,0.75,pic-present,1,n,0.42230139998719096,None,,,,,sub-073,46.4,44.6,47.35,COM3,2026-02-13_15h27.34.637,2024_RDpaindiscrimination_maintask,2023.2.3,60.014967749115065,2026-02-13 15h28.04.083927 -0500,
0,0,0,0,,,,,3,0,3,0,0,0,0,0,,,,,925.0907269000309,,,,,,923.8080226000166,925.0743851999287,,,,,,2,active,46.4,942.0746310999384,944.1762331000064,38.49999999999997,2.081,,,,,925.0746521999827,930.0742664999561,930.0742730000056,930.0907944999635,942.0746220999863,942.1075976999709,,,,,,,,,,,,,,,,,,,,,,,,,,,,,sub-073,46.4,44.6,47.35,COM3,2026-02-13_15h27.34.637,2024_RDpaindiscrimination_maintask,2023.2.3,60.014967749115065,2026-02-13 15h28.04.083927 -0500,
0,0,0,0,,,,,3,0,3,0,1,0,1,0,,,,,944.1910094999475,,,,,,,,,,,,,3,inactive,46.4,961.1747970000142,963.1926271999255,49.49999999999989,1.998,,,,,944.1769858000334,949.1745545000304,949.1745607999619,949.1910644000163,961.1747898999602,961.2077992999693,,,,,,,,,,,,,,,,,,,,,,,,,,,,,sub-073,46.4,44.6,47.35,COM3,2026-02-13_15h27.34.637,2024_RDpaindiscrimination_maintask,2023.2.3,60.014967749115065,2026-02-13 15h28.04.083927 -0500,
0,0,0,0,,,,,3,0,3,0,,,,,0,0,0,0,964.5579134,,,,,,,,,,,,,0,active,,,,,,,,,,,,,,,,963.193154699984,964.5414890999673,964.5417990999995,969.5414084999356,969.5414148999844,969.5579666999402,977.5413497999543,977.5413497999543,980.5080837999703,980.5414567999542,980.5414567999542,980.5249049999984,4.28,4.52,428,451,8,1.2,0.75,pic-absent,1,n,0.9532366000348702,None,,,,,sub-073,46.4,44.6,47.35,COM3,2026-02-13_15h27.34.637,2024_RDpaindiscrimination_maintask,2023.2.3,60.014967749115065,2026-02-13 15h28.04.083927 -0500,
0,0,0,0,,,,,3,0,3,0,,,,,1,0,1,0,980.5414567999542,,,,,,,,,,,,,1,active,,,,,,,,,,,,,,,,,,980.5254452000372,985.5249386000214,985.5249446999514,985.5414110999554,993.5249130999437,993.5249130999437,996.491602199967,996.524930399959,996.524930399959,996.508444200037,4.73,4.07,473,407,8,1.2,0.75,pic-absent,1,n,0.4576702000340447,None,,,,,sub-073,46.4,44.6,47.35,COM3,2026-02-13_15h27.34.637,2024_RDpaindiscrimination_maintask,2023.2.3,60.014967749115065,2026-02-13 15h28.04.083927 -0500,
0,0,0,0,,,,,3,0,3,0,,,,,2,0,2,0,996.524930399959,,,,,,,,,,,,,2,inactive,,,,,,,,,,,,,,,,,,996.5088827,1001.5084339999594,1001.5084409000119,1001.5249206000008,1009.5083406999474,1009.5083406999474,1012.4751080999849,1012.5084255000111,1012.5084255000111,1012.4919140000129,4.66,4.14,466,413,8,1.2,0.75,pic-present,0,m,0.47828719997778535,None,,,,,sub-073,46.4,44.6,47.35,COM3,2026-02-13_15h27.34.637,2024_RDpaindiscrimination_maintask,2023.2.3,60.014967749115065,2026-02-13 15h28.04.083927 -0500,
0,0,0,0,,,,,3,0,3,0,,,,,3,0,3,0,1012.5084255000111,,,,,,,,,,,,,3,active,,,,,,,,,,,,,,,,,,1012.492389400024,1017.4919210999506,1017.4919272999978,1017.508484799997,1025.491920499946,1025.491920499946,1028.4586232999573,1028.4918857000303,1028.4918857000303,1028.4754317000043,3.64,5.16,364,516,8,1.2,0.75,pic-absent,0,m,0.3343907999806106,None,,,,,sub-073,46.4,44.6,47.35,COM3,2026-02-13_15h27.34.637,2024_RDpaindiscrimination_maintask,2023.2.3,60.014967749115065,2026-02-13 15h28.04.083927 -0500,
1,0,1,0,0,0,0,0,,,,,,,,,,,,,1053.0421901999507,,,,1031.8924339000368,1052.4091526999837,1052.409161999938,1053.0257758999942,1053.0260723000392,1058.0257164000068,1058.0257226999383,1058.0422468000324,1070.0258674999932,0,inactive,46.4,1070.0260672000004,1072.3787114999723,53.49999999999995,2.329,,,,,,,,,,,,,,,,,,,,,,,,,,,,,,,,,,,1028.475877800025,1031.892308600014,,,sub-073,46.4,44.6,47.35,COM3,2026-02-13_15h27.34.637,2024_RDpaindiscrimination_maintask,2023.2.3,60.014967749115065,2026-02-13 15h28.04.083927 -0500,
1,0,1,0,1,0,1,0,,,,,,,,,,,,,1072.3924509999342,,,,,,,,1072.3795793999452,1077.3759518000297,1077.3759584999643,1077.3924634000286,1089.3762353999773,1,active,44.6,1089.3763742999872,1092.6617808999727,30.000000000000043,3.266,1089.4092981999274,,,,,,,,,,,,,,,,,,,,,,,,,,,,,,,,,,,,,,sub-073,46.4,44.6,47.35,COM3,2026-02-13_15h27.34.637,2024_RDpaindiscrimination_maintask,2023.2.3,60.014967749115065,2026-02-13 15h28.04.083927 -0500,
1,0,1,0,2,0,2,0,,,,,,,,,,,,,1092.6760957000079,,,,,,,,1092.6626484999433,1097.6595498999814,1097.65955630003,1097.6761292000301,1109.6599355000071,2,active,44.6,1109.6600766000338,1111.5284263000358,34.999999999999986,1.848,1109.6929780000355,,,,,,,,,,,,,,,,,,,,,,,,,,,,,,,,,,,,,,sub-073,46.4,44.6,47.35,COM3,2026-02-13_15h27.34.637,2024_RDpaindiscrimination_maintask,2023.2.3,60.014967749115065,2026-02-13 15h28.04.083927 -0500,
1,0,1,0,3,0,3,0,,,,,,,,,,,,,1111.5429124999791,,,,,,,,1111.529218200012,1116.526441999944,1116.5264480999904,1116.5429271999747,1128.5267533999868,3,inactive,46.4,1128.5268957000226,1130.261179300025,72.99999999999991,1.715,1128.5597691999283,,,,,,,,,,,,,,,,,,,,,,,,,,,,,,,,,,,,,,sub-073,46.4,44.6,47.35,COM3,2026-02-13_15h27.34.637,2024_RDpaindiscrimination_maintask,2023.2.3,60.014967749115065,2026-02-13 15h28.04.083927 -0500,
1,0,1,0,4,0,4,0,,,,,,,,,,,,,1130.2763595000142,,,,,,,,1130.2619268000126,1135.2599739999278,1135.2599795999704,1135.2765031999443,1147.2602475000313,0,active,44.6,1147.2603876999347,1149.3950360999443,20.000000000000007,2.116,1147.2932934999699,,,,,,,,,,,,,,,,,,,,,,,,,,,,,,,,,,,,,,sub-073,46.4,44.6,47.35,COM3,2026-02-13_15h27.34.637,2024_RDpaindiscrimination_maintask,2023.2.3,60.014967749115065,2026-02-13 15h28.04.083927 -0500,
1,0,1,0,5,0,5,0,,,,,,,,,,,,,1149.4099833000218,,,,,,,,1149.3958243000088,1154.3935140999965,1154.3935201999266,1154.4100311000366,1166.3937856999692,1,inactive,46.4,1166.3939235999715,1168.5298870999832,53.50000000000009,2.116,1166.4268157000188,,,,,,,,,,,,,,,,,,,,,,,,,,,,,,,,,,,,,,sub-073,46.4,44.6,47.35,COM3,2026-02-13_15h27.34.637,2024_RDpaindiscrimination_maintask,2023.2.3,60.014967749115065,2026-02-13 15h28.04.083927 -0500,
1,0,1,0,6,0,6,0,,,,,,,,,,,,,1168.5435173999285,,,,,,,,1168.5306750999298,1173.5270109999692,1173.5270167000126,1173.5435311000329,1185.5272916000104,2,inactive,46.4,1185.5274295000127,1187.1968632999342,63.999999999999986,1.649,1185.5604104000377,,,,,,,,,,,,,,,,,,,,,,,,,,,,,,,,,,,,,,sub-073,46.4,44.6,47.35,COM3,2026-02-13_15h27.34.637,2024_RDpaindiscrimination_maintask,2023.2.3,60.014967749115065,2026-02-13 15h28.04.083927 -0500,
1,0,1,0,7,0,7,0,,,,,,,,,,,,,1187.2104355000192,,,,,,,,1187.1976514999988,1192.1939314999618,1192.1939374000067,1192.210412299959,1204.1942647999385,3,active,44.6,1204.19440259994,1205.6965073000174,23.500000000000057,1.482,1204.2272804999957,,,,,,,,,,,,,,,,,,,,,,,,,,,,,,,,,,,,,,sub-073,46.4,44.6,47.35,COM3,2026-02-13_15h27.34.637,2024_RDpaindiscrimination_maintask,2023.2.3,60.014967749115065,2026-02-13 15h28.04.083927 -0500,
1,0,1,0,8,0,8,0,,,,,,,,,,,,,1205.7106770999962,,,,,,,,1205.6973094999557,1210.6941355000017,1210.694141899934,1210.7106156999944,1222.6944412000012,0,active,44.6,1222.694578499999,1225.9454393000342,24.500000000000064,3.231,1222.7274224000284,,,,,,,,,,,,,,,,,,,,,,,,,,,,,,,,,,,,,,sub-073,46.4,44.6,47.35,COM3,2026-02-13_15h27.34.637,2024_RDpaindiscrimination_maintask,2023.2.3,60.014967749115065,2026-02-13 15h28.04.083927 -0500,
1,0,1,0,9,0,9,0,,,,,,,,,,,,,1225.9608849999495,,,,,,,,1225.9462457000045,1230.9442875999957,1230.944293999928,1230.9608866999624,1242.944670099998,1,inactive,46.4,1242.9448082000017,1245.3624154999852,55.99999999999995,2.398,1242.9776981000323,,,,,,,,,,,,,,,,,,,,,,,,,,,,,,,,,,,,,,sub-073,46.4,44.6,47.35,COM3,2026-02-13_15h27.34.637,2024_RDpaindiscrimination_maintask,2023.2.3,60.014967749115065,2026-02-13 15h28.04.083927 -0500,
1,0,1,0,10,0,10,0,,,,,,,,,,,,,1245.3777726999251,,,,,,,,1245.3632188999327,1250.3612087999936,1250.3612160999328,1250.3777186999796,1262.3615453999955,2,active,44.6,1262.361688300036,1264.396286800038,29.500000000000107,2.014,1262.3945527999895,,,,,,,,,,,,,,,,,,,,,,,,,,,,,,,,,,,,,,sub-073,46.4,44.6,47.35,COM3,2026-02-13_15h27.34.637,2024_RDpaindiscrimination_maintask,2023.2.3,60.014967749115065,2026-02-13 15h28.04.083927 -0500,
1,0,1,0,11,0,11,0,,,,,,,,,,,,,1264.4112476999871,,,,,,,,1264.3970547999488,1269.394773200038,1269.3947789999656,1269.4113609000342,1281.395175899961,3,inactive,46.4,1281.3953140999656,1284.780331099988,72.49999999999983,3.365,1281.4281010000268,,,,,,,,,,,,,,,,,,,,,,,,,,,,,,,,,,,,,,sub-073,46.4,44.6,47.35,COM3,2026-02-13_15h27.34.637,2024_RDpaindiscrimination_maintask,2023.2.3,60.014967749115065,2026-02-13 15h28.04.083927 -0500,
1,0,1,0,12,0,12,0,,,,,,,,,,,,,1284.7948176999344,,,,,,,,1284.7811349999392,1289.7782920999452,1289.7782978999894,1289.794824099983,1301.7786584999412,0,inactive,46.4,1301.7787963999435,1303.6647725999355,38.49999999999997,1.867,1301.8117004999658,,,,,,,,,,,,,,,,,,,,,,,,,,,,,,,,,,,,,,sub-073,46.4,44.6,47.35,COM3,2026-02-13_15h27.34.637,2024_RDpaindiscrimination_maintask,2023.2.3,60.014967749115065,2026-02-13 15h28.04.083927 -0500,
1,0,1,0,13,0,13,0,,,,,,,,,,,,,1303.6783542999765,,,,,,,,1303.6655209999299,1308.6618757999968,1308.6618820999283,1308.6784301999724,1320.6622138000093,1,active,44.6,1320.6623529000208,1322.8304969000164,29.500000000000107,2.148,1320.6951482000295,,,,,,,,,,,,,,,,,,,,,,,,,,,,,,,,,,,,,,sub-073,46.4,44.6,47.35,COM3,2026-02-13_15h27.34.637,2024_RDpaindiscrimination_maintask,2023.2.3,60.014967749115065,2026-02-13 15h28.04.083927 -0500,
1,0,1,0,14,0,14,0,,,,,,,,,,,,,1322.8453262000112,,,,,,,,1322.831232400029,1327.8288105999818,1327.8288169000298,1327.8453264000127,1339.8290725999977,2,inactive,46.4,1339.829212200013,1341.1471163999522,66.49999999999997,1.298,1339.8621077999705,,,,,,,,,,,,,,,,,,,,,,,,,,,,,,,,,,,,,,sub-073,46.4,44.6,47.35,COM3,2026-02-13_15h27.34.637,2024_RDpaindiscrimination_maintask,2023.2.3,60.014967749115065,2026-02-13 15h28.04.083927 -0500,
1,0,1,0,15,0,15,0,,,,,,,,,,,,,1341.1620690999553,,,,,,,,1341.147369000013,1346.1455654000165,1346.1455710999435,1346.1620783000253,1358.1459540999494,3,active,44.6,1358.1460938999662,1360.1814861999592,27.500000000000114,2.015,1358.179054899956,,,,,,,,,,,,,,,,,,,,,,,,,,,,,,,,,,,,,,sub-073,46.4,44.6,47.35,COM3,2026-02-13_15h27.34.637,2024_RDpaindiscrimination_maintask,2023.2.3,60.014967749115065,2026-02-13 15h28.04.083927 -0500,
1,0,1,0,,,,,0,0,0,0,0,0,0,0,,,,,1363.7956651999848,,,,,,1363.3295536999358,1363.779158600024,,,,,,0,inactive,46.4,1380.7792460999917,1383.247070799931,24.499999999999993,2.448,,1360.181688199984,1360.195602599997,1363.329224599991,1363.7794260999653,1368.779122499982,1368.7791298000375,1368.795662999968,1380.7792376999278,,,,,,,,,,,,,,,,,,,,,,,,,,,,,,sub-073,46.4,44.6,47.35,COM3,2026-02-13_15h27.34.637,2024_RDpaindiscrimination_maintask,2023.2.3,60.014967749115065,2026-02-13 15h28.04.083927 -0500,
1,0,1,0,,,,,0,0,0,0,1,0,1,0,,,,,1383.2626115999883,,,,,,,,,,,,,1,active,46.4,1400.2463302999968,1402.3809211000334,37.500000000000114,2.115,,,,,1383.2474059000378,1388.2461460999912,1388.2461529999273,1388.262581499992,1400.246322699939,1400.279335899977,,,,,,,,,,,,,,,,,,,,,,,,,,,,,sub-073,46.4,44.6,47.35,COM3,2026-02-13_15h27.34.637,2024_RDpaindiscrimination_maintask,2023.2.3,60.014967749115065,2026-02-13 15h28.04.083927 -0500,
1,0,1,0,,,,,0,0,0,0,,,,,0,0,0,0,1403.6460857000202,,,,,,,,,,,,,2,active,,,,,,,,,,,,,,,,1402.3814646999817,1403.6296587999677,1403.6299616999459,1408.6296030000085,1408.6296094999416,1408.646139599965,1416.6297055999748,1416.6297055999748,1419.5963958000066,1419.629680300015,1419.629680300015,1419.613161999965,3.8,5.0,380,500,8,1.2,0.75,pic-present,0,m,0.8244112000102177,None,,,,,sub-073,46.4,44.6,47.35,COM3,2026-02-13_15h27.34.637,2024_RDpaindiscrimination_maintask,2023.2.3,60.014967749115065,2026-02-13 15h28.04.083927 -0500,
1,0,1,0,,,,,0,0,0,0,,,,,1,0,1,0,1419.629680300015,,,,,,,,,,,,,3,inactive,,,,,,,,,,,,,,,,,,1419.6136849999893,1424.6131277999375,1424.6131341999862,1424.6296512000263,1432.6131188999861,1432.6131188999861,1435.5798341999762,1435.6131011999678,1435.6131011999678,1435.5965908999788,4.45,4.35,445,434,8,1.2,0.75,pic-absent,1,n,0.5651699000736699,None,,,,,sub-073,46.4,44.6,47.35,COM3,2026-02-13_15h27.34.637,2024_RDpaindiscrimination_maintask,2023.2.3,60.014967749115065,2026-02-13 15h28.04.083927 -0500,
1,0,1,0,,,,,0,0,0,0,,,,,2,0,2,0,1435.6131011999678,,,,,,,,,,,,,0,active,,,,,,,,,,,,,,,,,,1435.5970499999821,1440.5965991999255,1440.5966061999789,1440.6131252000341,1448.5965753999772,1448.5965753999772,1451.5632446999662,1451.5966783999465,1451.5966783999465,1451.5802378000226,4.07,4.73,407,473,8,1.2,0.75,pic-present,0,m,0.7413498999085277,None,,,,,sub-073,46.4,44.6,47.35,COM3,2026-02-13_15h27.34.637,2024_RDpaindiscrimination_maintask,2023.2.3,60.014967749115065,2026-02-13 15h28.04.083927 -0500,
1,0,1,0,,,,,0,0,0,0,,,,,3,0,3,0,1451.5966783999465,,,,,,,,,,,,,1,inactive,,,,,,,,,,,,,,,,,,1451.5807368999813,1456.580106599955,1456.5801130000036,1456.596790999989,1464.5801472000312,1464.5801472000312,1467.546760499943,1467.5800893999403,1467.5800893999403,1467.5636156999972,4.53,4.27,453,426,8,1.2,0.75,pic-absent,0,m,0.6259066000347957,None,,,,,sub-073,46.4,44.6,47.35,COM3,2026-02-13_15h27.34.637,2024_RDpaindiscrimination_maintask,2023.2.3,60.014967749115065,2026-02-13 15h28.04.083927 -0500,
1,0,1,0,,,,,1,0,1,0,0,0,0,0,,,,,1468.9801562000066,,,,,,1467.5640973999398,1468.9637457999634,,,,,,2,active,46.4,1485.9640116000082,1487.8487749999622,20.500000000000036,1.865,,,,,1468.9640330999391,1473.9636553999735,1473.9636625000276,1473.9802356000291,1485.964003299945,1485.9971435000189,,,,,,,,,,,,,,,,,,,,,,,,,,,,,sub-073,46.4,44.6,47.35,COM3,2026-02-13_15h27.34.637,2024_RDpaindiscrimination_maintask,2023.2.3,60.014967749115065,2026-02-13 15h28.04.083927 -0500,
1,0,1,0,,,,,1,0,1,0,1,0,1,0,,,,,1487.8637178000063,,,,,,,,,,,,,3,inactive,46.4,1504.847560300026,1507.5497110999422,64.49999999999987,2.682,,,,,1487.849519799929,1492.8472591999453,1492.8472660999978,1492.8638408000115,1504.8475522999652,1504.8805632999865,,,,,,,,,,,,,,,,,,,,,,,,,,,,,sub-073,46.4,44.6,47.35,COM3,2026-02-13_15h27.34.637,2024_RDpaindiscrimination_maintask,2023.2.3,60.014967749115065,2026-02-13 15h28.04.083927 -0500,
1,0,1,0,,,,,1,0,1,0,,,,,0,0,0,0,1508.747215099982,,,,,,,,,,,,,0,inactive,,,,,,,,,,,,,,,,1507.5502461999422,1508.7308001000201,1508.7310837999685,1513.7308714999817,1513.7308788000373,1513.7473523999797,1521.7307140999474,1521.7307140999474,1524.697457100032,1524.730734199984,1524.730734199984,1524.714270700002,3.75,5.05,375,505,8,1.2,0.75,pic-present,1,n,0.7230385999428108,None,,,,,sub-073,46.4,44.6,47.35,COM3,2026-02-13_15h27.34.637,2024_RDpaindiscrimination_maintask,2023.2.3,60.014967749115065,2026-02-13 15h28.04.083927 -0500,
1,0,1,0,,,,,1,0,1,0,,,,,1,0,1,0,1524.730734199984,,,,,,,,,,,,,1,active,,,,,,,,,,,,,,,,,,1524.7147964999313,1529.7143094999483,1529.7143157999963,1529.7308504999382,1537.7142842999892,1537.7142842999892,1540.6809036999475,1540.7142945999512,1540.7142945999512,1540.697729800013,3.91,4.89,391,488,8,1.2,0.75,pic-absent,1,n,0.5551712999586016,None,,,,,sub-073,46.4,44.6,47.35,COM3,2026-02-13_15h27.34.637,2024_RDpaindiscrimination_maintask,2023.2.3,60.014967749115065,2026-02-13 15h28.04.083927 -0500,
1,0,1,0,,,,,1,0,1,0,,,,,2,0,2,0,1540.7142945999512,,,,,,,,,,,,,2,inactive,,,,,,,,,,,,,,,,,,1540.6982200000202,1545.6977588000009,1545.697764899931,1545.7142939999467,1553.6977155000204,1553.6977155000204,1556.6644591999939,1556.6977603000123,1556.6977603000123,1556.681223499938,4.15,4.65,415,465,8,1.2,0.75,pic-present,0,m,0.5198550000786781,None,,,,,sub-073,46.4,44.6,47.35,COM3,2026-02-13_15h27.34.637,2024_RDpaindiscrimination_maintask,2023.2.3,60.014967749115065,2026-02-13 15h28.04.083927 -0500,
1,0,1,0,,,,,1,0,1,0,,,,,3,0,3,0,1556.6977603000123,,,,,,,,,,,,,3,active,,,,,,,,,,,,,,,,,,1556.6816680999473,1561.6812674000394,1561.681273699971,1561.697826599935,1569.6812898999779,1569.6812898999779,1572.6479617999867,1572.681355800014,1572.681355800014,1572.6647863000399,4.39,4.41,438,441,8,1.2,0.75,pic-present,1,n,0.4324595999205485,None,,,,,sub-073,46.4,44.6,47.35,COM3,2026-02-13_15h27.34.637,2024_RDpaindiscrimination_maintask,2023.2.3,60.014967749115065,2026-02-13 15h28.04.083927 -0500,
1,0,1,0,,,,,2,0,2,0,0,0,0,0,,,,,1573.4979758999543,,,,,,1572.6652692999924,1573.4816683999961,,,,,,0,active,46.4,1590.4818374000024,1592.8328589999583,20.000000000000142,2.331,,,,,1573.4819623000221,1578.4815241999459,1578.4815304999938,1578.4980587000027,1590.481828799937,1590.5148736999836,,,,,,,,,,,,,,,,,,,,,,,,,,,,,sub-073,46.4,44.6,47.35,COM3,2026-02-13_15h27.34.637,2024_RDpaindiscrimination_maintask,2023.2.3,60.014967749115065,2026-02-13 15h28.04.083927 -0500,
1,0,1,0,,,,,2,0,2,0,1,0,1,0,,,,,1592.8482515999349,,,,,,,,,,,,,1,inactive,46.4,1609.8320739000337,1612.5500248000026,66.99999999999983,2.699,,,,,1592.8335806999821,1597.8317564999452,1597.831762899994,1597.8483121999307,1609.8320658999728,1609.8651197999716,,,,,,,,,,,,,,,,,,,,,,,,,,,,,sub-073,46.4,44.6,47.35,COM3,2026-02-13_15h27.34.637,2024_RDpaindiscrimination_maintask,2023.2.3,60.014967749115065,2026-02-13 15h28.04.083927 -0500,
1,0,1,0,,,,,2,0,2,0,,,,,0,0,0,0,1613.9484764999943,,,,,,,,,,,,,2,inactive,,,,,,,,,,,,,,,,1612.5505565999774,1613.9319731999421,1613.9322729000123,1618.9319534000242,1618.9319600999588,1618.9484773000004,1626.9319713999284,1626.9319713999284,1629.8986103000352,1629.9319335999899,1629.9319335999899,1629.9154594999272,4.04,4.76,404,476,8,1.2,0.75,pic-absent,1,n,0.5736646000295877,None,,,,,sub-073,46.4,44.6,47.35,COM3,2026-02-13_15h27.34.637,2024_RDpaindiscrimination_maintask,2023.2.3,60.014967749115065,2026-02-13 15h28.04.083927 -0500,
1,0,1,0,,,,,2,0,2,0,,,,,1,0,1,0,1629.9319335999899,,,,,,,,,,,,,3,active,,,,,,,,,,,,,,,,,,1629.9160027999897,1634.9154529999942,1634.9154594999272,1634.9319883999415,1642.9154276000336,1642.9154276000336,1645.8821052999701,1645.9154505999759,1645.9154505999759,1645.898981199949,4.06,4.74,405,474,8,1.2,0.75,pic-present,0,m,0.4179237000644207,None,,,,,sub-073,46.4,44.6,47.35,COM3,2026-02-13_15h27.34.637,2024_RDpaindiscrimination_maintask,2023.2.3,60.014967749115065,2026-02-13 15h28.04.083927 -0500,
1,0,1,0,,,,,2,0,2,0,,,,,2,0,2,0,1645.9154505999759,,,,,,,,,,,,,0,inactive,,,,,,,,,,,,,,,,,,1645.8994658000302,1650.898973000003,1650.898979099933,1650.9155193000333,1658.898924899986,1658.898924899986,1661.8656180000398,1661.899016499985,1661.899016499985,1661.8824349000352,4.44,4.36,444,436,8,1.2,0.75,pic-absent,0,m,0.4983070999151096,None,,,,,sub-073,46.4,44.6,47.35,COM3,2026-02-13_15h27.34.637,2024_RDpaindiscrimination_maintask,2023.2.3,60.014967749115065,2026-02-13 15h28.04.083927 -0500,
1,0,1,0,,,,,2,0,2,0,,,,,3,0,3,0,1661.899016499985,,,,,,,,,,,,,1,inactive,,,,,,,,,,,,,,,,,,1661.8829059000127,1666.8825430999277,1666.8825499999803,1666.8990087999264,1674.8824594999896,1674.8824594999896,1677.8491577999666,1677.8824651000323,1677.8824651000323,1677.8659412999405,4.11,4.69,411,469,8,1.2,0.75,pic-present,1,n,0.43946319993119687,None,,,,,sub-073,46.4,44.6,47.35,COM3,2026-02-13_15h27.34.637,2024_RDpaindiscrimination_maintask,2023.2.3,60.014967749115065,2026-02-13 15h28.04.083927 -0500,
1,0,1,0,,,,,3,0,3,0,0,0,0,0,,,,,1678.965798499994,,,,,,1677.86639989994,1678.9493910999736,,,,,,2,inactive,46.4,1695.9496806999668,1698.5175694000209,38.50000000000004,2.44,,,,,1678.9496617999393,1683.949331299984,1683.9493374000303,1683.9658699999563,1695.9496731000254,1696.0827058999566,,,,,,,,,,,,,,,,,,,,,,,,,,,,,sub-073,46.4,44.6,47.35,COM3,2026-02-13_15h27.34.637,2024_RDpaindiscrimination_maintask,2023.2.3,60.014967749115065,2026-02-13 15h28.04.083927 -0500,
1,0,1,0,,,,,3,0,3,0,1,0,1,0,,,,,1698.5327843999257,,,,,,,,,,,,,3,active,46.4,1715.5165140000172,1718.585060399957,37.00000000000002,3.049,,,,,1698.5183974000392,1703.516172099975,1703.5161794000305,1703.532703200006,1715.516505699954,1715.5495132999495,,,,,,,,,,,,,,,,,,,,,,,,,,,,,sub-073,46.4,44.6,47.35,COM3,2026-02-13_15h27.34.637,2024_RDpaindiscrimination_maintask,2023.2.3,60.014967749115065,2026-02-13 15h28.04.083927 -0500,
1,0,1,0,,,,,3,0,3,0,,,,,0,0,0,0,1719.7829185000155,,,,,,,,,,,,,0,active,,,,,,,,,,,,,,,,1718.5856072999304,1719.766459699953,1719.7667817999609,1724.766483400017,1724.7664902999531,1724.7829487000126,1732.766371399979,1732.766371399979,1735.733111999929,1735.7664065000135,1735.7664065000135,1735.749890099978,3.86,4.94,386,494,8,1.2,0.75,pic-absent,1,n,0.4111621999181807,None,,,,,sub-073,46.4,44.6,47.35,COM3,2026-02-13_15h27.34.637,2024_RDpaindiscrimination_maintask,2023.2.3,60.014967749115065,2026-02-13 15h28.04.083927 -0500,
1,0,1,0,,,,,3,0,3,0,,,,,1,0,1,0,1735.7664065000135,,,,,,,,,,,,,1,inactive,,,,,,,,,,,,,,,,,,1735.750434699934,1740.7499195999699,1740.7499269000255,1740.7664593999507,1748.7499920999398,1748.7499920999398,1751.7165826000273,1751.749917899957,1751.749917899957,1751.7334254999878,3.75,5.05,375,505,8,1.2,0.75,pic-present,1,n,0.41914370004087687,None,,,,,sub-073,46.4,44.6,47.35,COM3,2026-02-13_15h27.34.637,2024_RDpaindiscrimination_maintask,2023.2.3,60.014967749115065,2026-02-13 15h28.04.083927 -0500,
1,0,1,0,,,,,3,0,3,0,,,,,2,0,2,0,1751.749917899957,,,,,,,,,,,,,2,active,,,,,,,,,,,,,,,,,,1751.7338773999363,1756.7334504999453,1756.7334579000017,1756.7499691999983,1764.7334763000254,1764.7334763000254,1767.700179400039,1767.7335383000318,1767.7335383000318,1767.7169877999695,3.56,5.24,356,524,8,1.2,0.75,pic-absent,0,m,0.3365977000212297,None,,,,,sub-073,46.4,44.6,47.35,COM3,2026-02-13_15h27.34.637,2024_RDpaindiscrimination_maintask,2023.2.3,60.014967749115065,2026-02-13 15h28.04.083927 -0500,
1,0,1,0,,,,,3,0,3,0,,,,,3,0,3,0,1767.7335383000318,,,,,,,,,,,,,3,active,,,,,,,,,,,,,,,,,,1767.7174291999545,1772.716970599955,1772.716977700009,1772.733541399939,1780.717024100013,1780.717024100013,1783.6837213999825,1783.7170575000346,1783.7170575000346,1783.700442799949,4.12,4.68,412,468,8,1.2,0.75,pic-absent,1,n,0.6011805000016466,None,,,,,sub-073,46.4,44.6,47.35,COM3,2026-02-13_15h27.34.637,2024_RDpaindiscrimination_maintask,2023.2.3,60.014967749115065,2026-02-13 15h28.04.083927 -0500,
,,,,,,,,,,,,,,,,,,,,,,,,,,,,,,,,,,,,,,,,,,,,,,,,,,,,,,,,,,,,,,,,,,,,,,,,,,1783.7008637000108,1785.6506270000245,1785.650645699934,1795.650522199925,,,,,,,,,,,
