participant,condition,pic_presence,pic_response,trials.thisN,loop_eval_discri.thisN,loop_discri.thisRepN,discrimin_resp.rt,actual_trial,accuracy,detection_type,reaction_time,reaction_time_good,reaction_time_bad,exclude
sub-007,inactive,pic-absent,0,0.0,0.0,0.0,0.5881847999999081,9,1,correct rejection,0.5881847999999081,0.5881847999999081,,0
sub-007,inactive,pic-absent,1,0.0,0.0,1.0,0.8969295999995666,9,0,false alarm,0.8969295999995666,,0.8969295999995666,0
sub-007,active,pic-present,1,0.0,0.0,2.0,0.4666319999996631,9,1,hit,0.4666319999996631,0.4666319999996631,,0
sub-007,active,pic-absent,0,0.0,0.0,3.0,0.5561706999997114,9,1,correct rejection,0.5561706999997114,0.5561706999997114,,0
sub-007,inactive,pic-present,1,0.0,1.0,0.0,0.4539213999996718,10,1,hit,0.4539213999996718,0.4539213999996718,,0
sub-007,active,pic-absent,0,0.0,1.0,1.0,0.85552110000026,10,1,correct rejection,0.85552110000026,0.85552110000026,,0
sub-007,inactive,pic-present,1,0.0,1.0,2.0,0.3365873000002466,10,1,hit,0.3365873000002466,0.3365873000002466,,0
sub-007,inactive,pic-absent,0,0.0,1.0,3.0,0.3786681999999928,10,1,correct rejection,0.3786681999999928,0.3786681999999928,,0
sub-007,active,pic-present,1,0.0,2.0,0.0,0.4323909000004278,11,1,hit,0.4323909000004278,0.4323909000004278,,0
sub-007,active,pic-present,1,0.0,2.0,1.0,0.5501075000001947,11,1,hit,0.5501075000001947,0.5501075000001947,,0
sub-007,inactive,pic-absent,0,0.0,2.0,2.0,0.5916886999993949,11,1,correct rejection,0.5916886999993949,0.5916886999993949,,0
sub-007,inactive,pic-present,1,0.0,2.0,3.0,0.3970854999997755,11,1,hit,0.3970854999997755,0.3970854999997755,,0
sub-007,active,pic-absent,0,0.0,3.0,0.0,1.0383430999991106,12,1,correct rejection,1.0383430999991106,1.0383430999991106,,0
sub-007,inactive,pic-present,1,0.0,3.0,1.0,0.3757820999999239,12,1,hit,0.3757820999999239,0.3757820999999239,,0
sub-007,active,pic-absent,0,0.0,3.0,2.0,0.4651190000004135,12,1,correct rejection,0.4651190000004135,0.4651190000004135,,0
sub-007,active,pic-present,1,0.0,3.0,3.0,0.4585398000008354,12,1,hit,0.4585398000008354,0.4585398000008354,,0
sub-007,active,pic-present,1,1.0,0.0,0.0,0.4343334000004688,21,1,hit,0.4343334000004688,0.4343334000004688,,0
sub-007,inactive,pic-absent,0,1.0,0.0,1.0,0.4597290999990946,21,1,correct rejection,0.4597290999990946,0.4597290999990946,,0
sub-007,inactive,pic-present,1,1.0,0.0,2.0,0.7808022999997775,21,1,hit,0.7808022999997775,0.7808022999997775,,0
sub-007,active,pic-absent,0,1.0,0.0,3.0,0.6383779000007053,21,1,correct rejection,0.6383779000007053,0.6383779000007053,,0
sub-007,inactive,pic-present,1,1.0,1.0,0.0,0.3764479000001302,22,1,hit,0.3764479000001302,0.3764479000001302,,0
sub-007,active,pic-absent,0,1.0,1.0,1.0,0.5411278999999922,22,1,correct rejection,0.5411278999999922,0.5411278999999922,,0
sub-007,active,pic-present,1,1.0,1.0,2.0,0.4431733999990683,22,1,hit,0.4431733999990683,0.4431733999990683,,0
sub-007,inactive,pic-absent,0,1.0,1.0,3.0,0.531915300000037,22,1,correct rejection,0.531915300000037,0.531915300000037,,0
sub-007,active,pic-absent,0,1.0,2.0,0.0,0.6528698000001896,23,1,correct rejection,0.6528698000001896,0.6528698000001896,,0
sub-007,active,pic-present,1,1.0,2.0,1.0,0.524967999999717,23,1,hit,0.524967999999717,0.524967999999717,,0
sub-007,inactive,pic-absent,0,1.0,2.0,2.0,1.0347776999988127,23,1,correct rejection,1.0347776999988127,1.0347776999988127,,0
sub-007,active,pic-present,1,1.0,2.0,3.0,0.5603059999994002,23,1,hit,0.5603059999994002,0.5603059999994002,,0
sub-007,inactive,pic-absent,0,1.0,3.0,0.0,0.4802337999990413,24,1,correct rejection,0.4802337999990413,0.4802337999990413,,0
sub-007,inactive,pic-present,1,1.0,3.0,1.0,0.4089553999983764,24,1,hit,0.4089553999983764,0.4089553999983764,,0
sub-007,active,pic-absent,0,1.0,3.0,2.0,0.3584095999995043,24,1,correct rejection,0.3584095999995043,0.3584095999995043,,0
sub-007,inactive,pic-present,1,1.0,3.0,3.0,0.5884007000004203,24,1,hit,0.5884007000004203,0.5884007000004203,,0
sub-010,active,pic-present,1,0.0,0.0,0.0,0.5466512000130024,9,1,hit,0.5466512000130024,0.5466512000130024,,0
sub-010,active,pic-present,1,0.0,0.0,1.0,0.6028490000026068,9,1,hit,0.6028490000026068,0.6028490000026068,,0
sub-010,inactive,pic-absent,1,0.0,0.0,2.0,0.4686051000026054,9,0,false alarm,0.4686051000026054,,0.4686051000026054,0
sub-010,inactive,pic-present,1,0.0,0.0,3.0,0.3363225999928545,9,1,hit,0.3363225999928545,0.3363225999928545,,0
sub-010,active,pic-absent,1,0.0,1.0,0.0,0.4116846999968402,10,0,false alarm,0.4116846999968402,,0.4116846999968402,0
sub-010,inactive,pic-absent,0,0.0,1.0,1.0,0.4155772000085562,10,1,correct rejection,0.4155772000085562,0.4155772000085562,,0
sub-010,active,pic-present,1,0.0,1.0,2.0,0.3288144999969518,10,1,hit,0.3288144999969518,0.3288144999969518,,0
sub-010,active,pic-absent,1,0.0,1.0,3.0,0.3807598000130383,10,0,false alarm,0.3807598000130383,,0.3807598000130383,0
sub-010,inactive,pic-absent,1,0.0,2.0,0.0,0.3187697999965166,11,0,false alarm,0.3187697999965166,,0.3187697999965166,0
sub-010,inactive,pic-present,1,0.0,2.0,1.0,0.2776194000034593,11,1,hit,0.2776194000034593,0.2776194000034593,,0
sub-010,active,pic-absent,1,0.0,2.0,2.0,0.3753087999939453,11,0,false alarm,0.3753087999939453,,0.3753087999939453,0
sub-010,inactive,pic-absent,0,0.0,2.0,3.0,0.6152870999940205,11,1,correct rejection,0.6152870999940205,0.6152870999940205,,0
sub-010,inactive,pic-present,1,0.0,3.0,0.0,0.3696066999982577,12,1,hit,0.3696066999982577,0.3696066999982577,,0
sub-010,active,pic-absent,0,0.0,3.0,1.0,0.4218027999886544,12,1,correct rejection,0.4218027999886544,0.4218027999886544,,0
sub-010,inactive,pic-present,1,0.0,3.0,2.0,0.3306568000116385,12,1,hit,0.3306568000116385,0.3306568000116385,,0
sub-010,active,pic-present,1,0.0,3.0,3.0,0.3828589000040665,12,1,hit,0.3828589000040665,0.3828589000040665,,0
sub-010,inactive,pic-absent,1,1.0,0.0,0.0,0.4908614000014495,21,0,false alarm,0.4908614000014495,,0.4908614000014495,0
sub-010,active,pic-absent,1,1.0,0.0,1.0,0.3562518000107957,21,0,false alarm,0.3562518000107957,,0.3562518000107957,0
sub-010,inactive,pic-present,1,1.0,0.0,2.0,0.4072128999978304,21,1,hit,0.4072128999978304,0.4072128999978304,,0
sub-010,inactive,pic-absent,0,1.0,0.0,3.0,0.9315477999916766,21,1,correct rejection,0.9315477999916766,0.9315477999916766,,0
sub-010,active,pic-present,1,1.0,1.0,0.0,0.2645157999941148,22,1,hit,0.2645157999941148,0.2645157999941148,,0
sub-010,active,pic-present,1,1.0,1.0,1.0,0.5610228000005009,22,1,hit,0.5610228000005009,0.5610228000005009,,0
sub-010,inactive,pic-absent,1,1.0,1.0,2.0,0.369286800007103,22,0,false alarm,0.369286800007103,,0.369286800007103,0
sub-010,active,pic-present,1,1.0,1.0,3.0,0.4263402999931713,22,1,hit,0.4263402999931713,0.4263402999931713,,0
sub-010,inactive,pic-present,1,1.0,2.0,0.0,0.3795299000048544,23,1,hit,0.3795299000048544,0.3795299000048544,,0
sub-010,inactive,pic-absent,0,1.0,2.0,1.0,1.324519000001601,23,1,correct rejection,1.324519000001601,1.324519000001601,,0
sub-010,active,pic-absent,1,1.0,2.0,2.0,0.4852822000102605,23,0,false alarm,0.4852822000102605,,0.4852822000102605,0
sub-010,inactive,pic-present,1,1.0,2.0,3.0,0.3023217000009026,23,1,hit,0.3023217000009026,0.3023217000009026,,0
sub-010,active,pic-absent,1,1.0,3.0,0.0,0.3374686999886762,24,0,false alarm,0.3374686999886762,,0.3374686999886762,0
sub-010,inactive,pic-present,1,1.0,3.0,1.0,0.3930567000061273,24,1,hit,0.3930567000061273,0.3930567000061273,,0
sub-010,active,pic-present,1,1.0,3.0,2.0,0.3972892999881878,24,1,hit,0.3972892999881878,0.3972892999881878,,0
sub-010,active,pic-absent,1,1.0,3.0,3.0,0.3583406999969156,24,0,false alarm,0.3583406999969156,,0.3583406999969156,0
sub-012,active,pic-absent,0,0.0,0.0,0.0,2.277016800013371,9,1,correct rejection,2.277016800013371,2.277016800013371,,0
sub-012,inactive,pic-present,1,0.0,0.0,1.0,1.109421500004828,9,1,hit,1.109421500004828,1.109421500004828,,0
sub-012,active,pic-absent,1,0.0,0.0,2.0,1.3545291000045836,9,0,false alarm,1.3545291000045836,,1.3545291000045836,0
sub-012,active,pic-present,1,0.0,0.0,3.0,1.175066499970853,9,1,hit,1.175066499970853,1.175066499970853,,0
sub-012,inactive,pic-absent,1,0.0,1.0,0.0,1.3042842999566346,10,0,false alarm,1.3042842999566346,,1.3042842999566346,0
sub-012,active,pic-absent,1,0.0,1.0,1.0,1.0330035999650136,10,0,false alarm,1.0330035999650136,,1.0330035999650136,0
sub-012,inactive,pic-present,0,0.0,1.0,2.0,1.6531644000206145,10,0,miss,1.6531644000206145,,1.6531644000206145,0
sub-012,active,pic-absent,1,0.0,1.0,3.0,0.8168043999467045,10,0,false alarm,0.8168043999467045,,0.8168043999467045,0
sub-012,inactive,pic-present,1,0.0,2.0,0.0,0.729254600009881,11,1,hit,0.729254600009881,0.729254600009881,,0
sub-012,active,pic-present,1,0.0,2.0,1.0,0.6454912000335753,11,1,hit,0.6454912000335753,0.6454912000335753,,0
sub-012,inactive,pic-absent,1,0.0,2.0,2.0,0.8425000999122858,11,0,false alarm,0.8425000999122858,,0.8425000999122858,0
sub-012,inactive,pic-absent,0,0.0,2.0,3.0,0.9459706000052392,11,1,correct rejection,0.9459706000052392,0.9459706000052392,,0
sub-012,active,pic-present,1,0.0,3.0,0.0,0.7775561000453308,12,1,hit,0.7775561000453308,0.7775561000453308,,0
sub-012,inactive,pic-absent,0,0.0,3.0,1.0,1.305593500030227,12,1,correct rejection,1.305593500030227,1.305593500030227,,0
sub-012,active,pic-present,1,0.0,3.0,2.0,0.7497069999808446,12,1,hit,0.7497069999808446,0.7497069999808446,,0
sub-012,inactive,pic-present,1,0.0,3.0,3.0,0.8027252000756562,12,1,hit,0.8027252000756562,0.8027252000756562,,0
sub-012,inactive,pic-present,1,1.0,0.0,0.0,1.285950900055468,21,1,hit,1.285950900055468,1.285950900055468,,0
sub-012,active,pic-absent,1,1.0,0.0,1.0,1.7176448000827804,21,0,false alarm,1.7176448000827804,,1.7176448000827804,0
sub-012,inactive,pic-present,1,1.0,0.0,2.0,1.214396100025624,21,1,hit,1.214396100025624,1.214396100025624,,0
sub-012,active,pic-absent,0,1.0,0.0,3.0,1.4551645999308676,21,1,correct rejection,1.4551645999308676,1.4551645999308676,,0
sub-012,active,pic-present,1,1.0,1.0,0.0,0.7733522999333218,22,1,hit,0.7733522999333218,0.7733522999333218,,0
sub-012,inactive,pic-absent,0,1.0,1.0,1.0,1.254407100030221,22,1,correct rejection,1.254407100030221,1.254407100030221,,0
sub-012,inactive,pic-absent,1,1.0,1.0,2.0,0.9348749999189748,22,0,false alarm,0.9348749999189748,,0.9348749999189748,0
sub-012,active,pic-present,1,1.0,1.0,3.0,0.7538773000705987,22,1,hit,0.7538773000705987,0.7538773000705987,,0
sub-012,active,pic-absent,1,1.0,2.0,0.0,1.2514471999602392,23,0,false alarm,1.2514471999602392,,1.2514471999602392,0
sub-012,inactive,pic-present,1,1.0,2.0,1.0,0.9759358000010252,23,1,hit,0.9759358000010252,0.9759358000010252,,0
sub-012,active,pic-absent,0,1.0,2.0,2.0,1.4602533000288531,23,1,correct rejection,1.4602533000288531,1.4602533000288531,,0
sub-012,inactive,pic-present,1,1.0,2.0,3.0,1.139956400031224,23,1,hit,1.139956400031224,1.139956400031224,,0
sub-012,inactive,pic-absent,0,1.0,3.0,0.0,1.2407162999734282,24,1,correct rejection,1.2407162999734282,1.2407162999734282,,0
sub-012,active,pic-present,1,1.0,3.0,1.0,1.0622507000807673,24,1,hit,1.0622507000807673,1.0622507000807673,,0
sub-012,active,pic-present,1,1.0,3.0,2.0,0.7900180000578985,24,1,hit,0.7900180000578985,0.7900180000578985,,0
sub-012,inactive,pic-absent,0,1.0,3.0,3.0,1.6462685000151396,24,1,correct rejection,1.6462685000151396,1.6462685000151396,,0
sub-014,inactive,pic-present,1,0.0,0.0,0.0,0.8644603999564424,9,1,hit,0.8644603999564424,0.8644603999564424,,0
sub-014,inactive,pic-absent,1,0.0,0.0,1.0,1.2540231000166386,9,0,false alarm,1.2540231000166386,,1.2540231000166386,0
sub-014,active,pic-present,1,0.0,0.0,2.0,1.3096503999549896,9,1,hit,1.3096503999549896,1.3096503999549896,,0
sub-014,inactive,pic-absent,1,0.0,1.0,0.0,1.070235999999568,10,0,false alarm,1.070235999999568,,1.070235999999568,0
sub-014,active,pic-absent,0,0.0,1.0,1.0,1.223088200087659,10,1,correct rejection,1.223088200087659,1.223088200087659,,0
sub-014,inactive,pic-present,0,0.0,1.0,2.0,1.3225448000011966,10,0,miss,1.3225448000011966,,1.3225448000011966,0
sub-014,active,pic-present,1,0.0,1.0,3.0,1.1386391000123697,10,1,hit,1.1386391000123697,1.1386391000123697,,0
sub-014,active,pic-absent,1,0.0,2.0,0.0,1.2586692000040784,11,0,false alarm,1.2586692000040784,,1.2586692000040784,0
sub-014,inactive,pic-present,1,0.0,2.0,1.0,1.922980200033635,11,1,hit,1.922980200033635,1.922980200033635,,0
sub-014,active,pic-absent,1,0.0,2.0,2.0,1.0355916999978945,11,0,false alarm,1.0355916999978945,,1.0355916999978945,0
sub-014,inactive,pic-absent,1,0.0,2.0,3.0,2.360269600059837,11,0,false alarm,2.360269600059837,,2.360269600059837,0
sub-014,active,pic-present,1,0.0,3.0,0.0,1.630408599972725,12,1,hit,1.630408599972725,1.630408599972725,,0
sub-014,active,pic-present,1,0.0,3.0,1.0,1.1753575999755412,12,1,hit,1.1753575999755412,1.1753575999755412,,0
sub-014,active,pic-absent,1,0.0,3.0,3.0,0.9124321000417694,12,0,false alarm,0.9124321000417694,,0.9124321000417694,0
sub-014,inactive,pic-absent,1,1.0,0.0,0.0,0.6769611000781879,21,0,false alarm,0.6769611000781879,,0.6769611000781879,0
sub-014,active,pic-present,1,1.0,0.0,1.0,0.8742033999878913,21,1,hit,0.8742033999878913,0.8742033999878913,,0
sub-014,inactive,pic-present,1,1.0,0.0,2.0,1.2140044000698254,21,1,hit,1.2140044000698254,1.2140044000698254,,0
sub-014,inactive,pic-absent,0,1.0,0.0,3.0,2.3504405999556184,21,1,correct rejection,2.3504405999556184,2.3504405999556184,,0
sub-014,active,pic-absent,1,1.0,1.0,0.0,1.0960934000322595,22,0,false alarm,1.0960934000322595,,1.0960934000322595,0
sub-014,inactive,pic-present,1,1.0,1.0,1.0,0.8720014999853447,22,1,hit,0.8720014999853447,0.8720014999853447,,0
sub-014,active,pic-present,1,1.0,1.0,2.0,1.0648703000042588,22,1,hit,1.0648703000042588,1.0648703000042588,,0
sub-014,active,pic-absent,1,1.0,1.0,3.0,0.976920999935828,22,0,false alarm,0.976920999935828,,0.976920999935828,0
sub-014,inactive,pic-present,1,1.0,2.0,0.0,0.9073719000443816,23,1,hit,0.9073719000443816,0.9073719000443816,,0
sub-014,active,pic-absent,1,1.0,2.0,1.0,1.1565712000010535,23,0,false alarm,1.1565712000010535,,1.1565712000010535,0
sub-014,active,pic-absent,1,1.0,2.0,2.0,0.8798766999971122,23,0,false alarm,0.8798766999971122,,0.8798766999971122,0
sub-014,inactive,pic-present,1,1.0,2.0,3.0,1.3125976999290287,23,1,hit,1.3125976999290287,1.3125976999290287,,0
sub-014,active,pic-present,1,1.0,3.0,0.0,0.8986968999961391,24,1,hit,0.8986968999961391,0.8986968999961391,,0
sub-014,inactive,pic-absent,0,1.0,3.0,1.0,1.4722873999271542,24,1,correct rejection,1.4722873999271542,1.4722873999271542,,0
sub-014,inactive,pic-absent,1,1.0,3.0,2.0,1.43545610003639,24,0,false alarm,1.43545610003639,,1.43545610003639,0
sub-014,active,pic-present,1,1.0,3.0,3.0,1.0648935999488458,24,1,hit,1.0648935999488458,1.0648935999488458,,0
sub-0015,active,pic-absent,1,0.0,0.0,1.0,1.442656899918802,9,0,false alarm,1.442656899918802,,1.442656899918802,0
sub-0015,active,pic-present,0,0.0,0.0,2.0,1.2621605000458658,9,0,miss,1.2621605000458658,,1.2621605000458658,0
sub-0015,inactive,pic-present,1,0.0,0.0,3.0,1.0821952000260353,9,1,hit,1.0821952000260353,1.0821952000260353,,0
sub-0015,active,pic-absent,0,0.0,1.0,0.0,1.1749281000811609,10,1,correct rejection,1.1749281000811609,1.1749281000811609,,0
sub-0015,inactive,pic-present,0,0.0,1.0,1.0,1.423775199917145,10,0,miss,1.423775199917145,,1.423775199917145,0
sub-0015,inactive,pic-present,0,0.0,1.0,2.0,1.1008390999631956,10,0,miss,1.1008390999631956,,1.1008390999631956,0
sub-0015,active,pic-absent,1,0.0,1.0,3.0,1.0608088000444695,10,0,false alarm,1.0608088000444695,,1.0608088000444695,0
sub-0015,inactive,pic-absent,1,0.0,2.0,0.0,1.6196638999972492,11,0,false alarm,1.6196638999972492,,1.6196638999972492,0
sub-0015,active,pic-present,1,0.0,2.0,1.0,1.0152183000463992,11,1,hit,1.0152183000463992,1.0152183000463992,,0
sub-0015,inactive,pic-absent,0,0.0,2.0,2.0,1.2163605999667195,11,1,correct rejection,1.2163605999667195,1.2163605999667195,,0
sub-0015,active,pic-present,1,0.0,2.0,3.0,1.317320799920708,11,1,hit,1.317320799920708,1.317320799920708,,0
sub-0015,active,pic-present,0,0.0,3.0,0.0,0.5270139999920502,12,0,miss,0.5270139999920502,,0.5270139999920502,0
sub-0015,inactive,pic-absent,1,0.0,3.0,1.0,1.3828979999525473,12,0,false alarm,1.3828979999525473,,1.3828979999525473,0
sub-0015,active,pic-absent,1,0.0,3.0,2.0,0.8750512999249622,12,0,false alarm,0.8750512999249622,,0.8750512999249622,0
sub-0015,inactive,pic-absent,1,0.0,3.0,3.0,1.072562800021842,12,0,false alarm,1.072562800021842,,1.072562800021842,0
sub-0015,inactive,pic-absent,0,1.0,0.0,0.0,0.6347927000606433,21,1,correct rejection,0.6347927000606433,0.6347927000606433,,0
sub-0015,active,pic-present,1,1.0,0.0,1.0,1.582895200001076,21,1,hit,1.582895200001076,1.582895200001076,,0
sub-0015,inactive,pic-absent,1,1.0,0.0,2.0,0.3673108000075444,21,0,false alarm,0.3673108000075444,,0.3673108000075444,0
sub-0015,inactive,pic-present,1,1.0,0.0,3.0,0.2851863000541925,21,1,hit,0.2851863000541925,0.2851863000541925,,0
sub-0015,active,pic-absent,0,1.0,1.0,0.0,1.845126000000164,22,1,correct rejection,1.845126000000164,1.845126000000164,,0
sub-0015,inactive,pic-present,1,1.0,1.0,1.0,1.5290883999550715,22,1,hit,1.5290883999550715,1.5290883999550715,,0
sub-0015,active,pic-absent,1,1.0,1.0,2.0,1.494819700019434,22,0,false alarm,1.494819700019434,,1.494819700019434,0
sub-0015,inactive,pic-absent,0,1.0,1.0,3.0,0.990914099966176,22,1,correct rejection,0.990914099966176,0.990914099966176,,0
sub-0015,active,pic-present,1,1.0,2.0,0.0,0.2759188000345602,23,1,hit,0.2759188000345602,0.2759188000345602,,0
sub-0015,inactive,pic-absent,1,1.0,2.0,1.0,0.4274232999887317,23,0,false alarm,0.4274232999887317,,0.4274232999887317,0
sub-0015,active,pic-present,0,1.0,2.0,2.0,0.6280422999989241,23,0,miss,0.6280422999989241,,0.6280422999989241,0
sub-0015,active,pic-absent,1,1.0,2.0,3.0,0.4935920999851078,23,0,false alarm,0.4935920999851078,,0.4935920999851078,0
sub-0015,inactive,pic-present,1,1.0,3.0,0.0,0.3980159000493586,24,1,hit,0.3980159000493586,0.3980159000493586,,0
sub-0015,active,pic-absent,0,1.0,3.0,1.0,0.4026534999720752,24,1,correct rejection,0.4026534999720752,0.4026534999720752,,0
sub-0015,inactive,pic-present,0,1.0,3.0,2.0,0.3639288999838754,24,0,miss,0.3639288999838754,,0.3639288999838754,0
sub-0015,active,pic-present,1,1.0,3.0,3.0,0.6030859000748023,24,1,hit,0.6030859000748023,0.6030859000748023,,0
sub-016,active,pic-absent,0,0.0,0.0,0.0,1.1515621999278665,9,1,correct rejection,1.1515621999278665,1.1515621999278665,,0
sub-016,active,pic-absent,0,0.0,0.0,1.0,1.20444890006911,9,1,correct rejection,1.20444890006911,1.20444890006911,,0
sub-016,inactive,pic-present,1,0.0,0.0,2.0,0.3162385000614449,9,1,hit,0.3162385000614449,0.3162385000614449,,0
sub-016,active,pic-absent,0,0.0,0.0,3.0,0.6541561000049114,9,1,correct rejection,0.6541561000049114,0.6541561000049114,,0
sub-016,active,pic-present,1,0.0,1.0,0.0,0.4012493001064285,10,1,hit,0.4012493001064285,0.4012493001064285,,0
sub-016,inactive,pic-absent,0,0.0,1.0,1.0,0.5494189000455663,10,1,correct rejection,0.5494189000455663,0.5494189000455663,,0
sub-016,active,pic-absent,0,0.0,1.0,2.0,0.654241600073874,10,1,correct rejection,0.654241600073874,0.654241600073874,,0
sub-016,active,pic-present,1,0.0,1.0,3.0,0.3340559999924153,10,1,hit,0.3340559999924153,0.3340559999924153,,0
sub-016,inactive,pic-absent,0,0.0,2.0,0.0,0.4554449999704957,11,1,correct rejection,0.4554449999704957,0.4554449999704957,,0
sub-016,inactive,pic-present,1,0.0,2.0,1.0,0.2286624000407755,11,1,hit,0.2286624000407755,0.2286624000407755,,0
sub-016,active,pic-present,1,0.0,2.0,2.0,0.3287954999832436,11,1,hit,0.3287954999832436,0.3287954999832436,,0
sub-016,inactive,pic-absent,1,0.0,2.0,3.0,0.4277798000257462,11,0,false alarm,0.4277798000257462,,0.4277798000257462,0
sub-016,inactive,pic-present,1,0.0,3.0,0.0,0.3704322000266984,12,1,hit,0.3704322000266984,0.3704322000266984,,0
sub-016,active,pic-present,1,0.0,3.0,1.0,0.3311344999819994,12,1,hit,0.3311344999819994,0.3311344999819994,,0
sub-016,inactive,pic-absent,0,0.0,3.0,2.0,1.0428103000158444,12,1,correct rejection,1.0428103000158444,1.0428103000158444,,0
sub-016,inactive,pic-present,1,0.0,3.0,3.0,0.3968700000550598,12,1,hit,0.3968700000550598,0.3968700000550598,,0
sub-016,inactive,pic-present,1,1.0,0.0,0.0,0.297614200040698,21,1,hit,0.297614200040698,0.297614200040698,,0
sub-016,inactive,pic-absent,1,1.0,0.0,1.0,0.4018875000765547,21,0,false alarm,0.4018875000765547,,0.4018875000765547,0
sub-016,active,pic-present,1,1.0,0.0,2.0,0.2667399999918416,21,1,hit,0.2667399999918416,0.2667399999918416,,0
sub-016,inactive,pic-absent,0,1.0,0.0,3.0,0.8867103999946266,21,1,correct rejection,0.8867103999946266,0.8867103999946266,,0
sub-016,active,pic-absent,0,1.0,1.0,0.0,0.3394304000539705,22,1,correct rejection,0.3394304000539705,0.3394304000539705,,0
sub-016,active,pic-present,1,1.0,1.0,1.0,0.347120999940671,22,1,hit,0.347120999940671,0.347120999940671,,0
sub-016,inactive,pic-absent,1,1.0,1.0,2.0,0.545328599982895,22,0,false alarm,0.545328599982895,,0.545328599982895,0
sub-016,active,pic-present,1,1.0,1.0,3.0,0.2729524999158457,22,1,hit,0.2729524999158457,0.2729524999158457,,0
sub-016,inactive,pic-absent,1,1.0,2.0,0.0,1.7745948999654502,23,0,false alarm,1.7745948999654502,,1.7745948999654502,0
sub-016,inactive,pic-present,1,1.0,2.0,1.0,0.2850208999589085,23,1,hit,0.2850208999589085,0.2850208999589085,,0
sub-016,active,pic-absent,0,1.0,2.0,2.0,0.3851356999948621,23,1,correct rejection,0.3851356999948621,0.3851356999948621,,0
sub-016,inactive,pic-present,1,1.0,2.0,3.0,0.5808264999650419,23,1,hit,0.5808264999650419,0.5808264999650419,,0
sub-016,active,pic-present,1,1.0,3.0,0.0,0.4595207000384107,24,1,hit,0.4595207000384107,0.4595207000384107,,0
sub-016,inactive,pic-present,1,1.0,3.0,2.0,0.3730812000576406,24,1,hit,0.3730812000576406,0.3730812000576406,,0
sub-016,active,pic-absent,0,1.0,3.0,3.0,0.4290500999195501,24,1,correct rejection,0.4290500999195501,0.4290500999195501,,0
sub-018,active,pic-present,1,0.0,0.0,0.0,0.4229127999860793,9,1,hit,0.4229127999860793,0.4229127999860793,,0
sub-018,inactive,pic-absent,0,0.0,0.0,1.0,0.3836341999704018,9,1,correct rejection,0.3836341999704018,0.3836341999704018,,0
sub-018,active,pic-absent,0,0.0,0.0,2.0,0.4439073000103235,9,1,correct rejection,0.4439073000103235,0.4439073000103235,,0
sub-018,active,pic-present,1,0.0,0.0,3.0,0.3570139000657946,9,1,hit,0.3570139000657946,0.3570139000657946,,0
sub-018,inactive,pic-absent,0,0.0,1.0,0.0,0.299331699963659,10,1,correct rejection,0.299331699963659,0.299331699963659,,0
sub-018,active,pic-present,1,0.0,1.0,1.0,0.307005500071682,10,1,hit,0.307005500071682,0.307005500071682,,0
sub-018,active,pic-present,1,0.0,1.0,2.0,0.3159937000600621,10,1,hit,0.3159937000600621,0.3159937000600621,,0
sub-018,inactive,pic-absent,0,0.0,1.0,3.0,0.3245724000735208,10,1,correct rejection,0.3245724000735208,0.3245724000735208,,0
sub-018,inactive,pic-present,1,0.0,2.0,0.0,0.4128138999221846,11,1,hit,0.4128138999221846,0.4128138999221846,,0
sub-018,active,pic-absent,0,0.0,2.0,1.0,0.6094026999780908,11,1,correct rejection,0.6094026999780908,0.6094026999780908,,0
sub-018,inactive,pic-present,1,0.0,2.0,2.0,0.294632300036028,11,1,hit,0.294632300036028,0.294632300036028,,0
sub-018,active,pic-absent,0,0.0,2.0,3.0,0.2543191999429837,11,1,correct rejection,0.2543191999429837,0.2543191999429837,,0
sub-018,active,pic-absent,0,0.0,3.0,0.0,0.3017959999851882,12,1,correct rejection,0.3017959999851882,0.3017959999851882,,0
sub-018,inactive,pic-present,1,0.0,3.0,1.0,0.362329899915494,12,1,hit,0.362329899915494,0.362329899915494,,0
sub-018,inactive,pic-absent,1,0.0,3.0,2.0,0.983590199961327,12,0,false alarm,0.983590199961327,,0.983590199961327,0
sub-018,inactive,pic-present,0,0.0,3.0,3.0,0.2880060999887064,12,0,miss,0.2880060999887064,,0.2880060999887064,0
sub-018,inactive,pic-absent,0,1.0,0.0,0.0,0.3164890999905765,21,1,correct rejection,0.3164890999905765,0.3164890999905765,,0
sub-018,active,pic-present,1,1.0,0.0,1.0,0.2320147999562323,21,1,hit,0.2320147999562323,0.2320147999562323,,0
sub-018,inactive,pic-absent,0,1.0,0.0,2.0,0.3845296000363305,21,1,correct rejection,0.3845296000363305,0.3845296000363305,,0
sub-018,inactive,pic-present,1,1.0,0.0,3.0,0.345104799955152,21,1,hit,0.345104799955152,0.345104799955152,,0
sub-018,active,pic-absent,1,1.0,1.0,0.0,0.8766214000061154,22,0,false alarm,0.8766214000061154,,0.8766214000061154,0
sub-018,inactive,pic-absent,1,1.0,1.0,1.0,0.2254884999711066,22,0,false alarm,0.2254884999711066,,0.2254884999711066,0
sub-018,inactive,pic-present,1,1.0,1.0,2.0,0.3735905999783426,22,1,hit,0.3735905999783426,0.3735905999783426,,0
sub-018,active,pic-absent,0,1.0,1.0,3.0,0.5259234999539331,22,1,correct rejection,0.5259234999539331,0.5259234999539331,,0
sub-018,inactive,pic-present,1,1.0,2.0,0.0,0.2377245998941362,23,1,hit,0.2377245998941362,0.2377245998941362,,0
sub-018,active,pic-absent,0,1.0,2.0,1.0,0.4333939999341964,23,1,correct rejection,0.4333939999341964,0.4333939999341964,,0
sub-018,active,pic-present,0,1.0,2.0,2.0,0.5819492998998612,23,0,miss,0.5819492998998612,,0.5819492998998612,0
sub-018,inactive,pic-absent,0,1.0,2.0,3.0,0.4978060000576079,23,1,correct rejection,0.4978060000576079,0.4978060000576079,,0
sub-018,active,pic-present,1,1.0,3.0,0.0,0.2865232999902218,24,1,hit,0.2865232999902218,0.2865232999902218,,0
sub-018,inactive,pic-present,1,1.0,3.0,1.0,0.2915951999602839,24,1,hit,0.2915951999602839,0.2915951999602839,,0
sub-018,active,pic-absent,0,1.0,3.0,2.0,0.2994095999747515,24,1,correct rejection,0.2994095999747515,0.2994095999747515,,0
sub-018,active,pic-present,0,1.0,3.0,3.0,1.2962711999425665,24,0,miss,1.2962711999425665,,1.2962711999425665,0
sub-021,inactive,pic-present,1,0.0,0.0,0.0,0.7182936999997764,9,1,hit,0.7182936999997764,0.7182936999997764,,0
sub-021,active,pic-present,1,0.0,0.0,1.0,1.4264580000017304,9,1,hit,1.4264580000017304,1.4264580000017304,,0
sub-021,inactive,pic-absent,0,0.0,0.0,2.0,0.6310131999998703,9,1,correct rejection,0.6310131999998703,0.6310131999998703,,0
sub-021,active,pic-absent,0,0.0,0.0,3.0,0.5450712999991083,9,1,correct rejection,0.5450712999991083,0.5450712999991083,,0
sub-021,active,pic-present,0,0.0,1.0,0.0,0.487440199998673,10,0,miss,0.487440199998673,,0.487440199998673,0
sub-021,inactive,pic-present,1,0.0,1.0,1.0,0.4482859999989159,10,1,hit,0.4482859999989159,0.4482859999989159,,0
sub-021,active,pic-absent,0,0.0,1.0,2.0,0.6412890999999945,10,1,correct rejection,0.6412890999999945,0.6412890999999945,,0
sub-021,inactive,pic-present,0,0.0,1.0,3.0,2.3850722999995924,10,0,miss,2.3850722999995924,,2.3850722999995924,0
sub-021,active,pic-absent,0,0.0,2.0,0.0,0.3865016999989166,11,1,correct rejection,0.3865016999989166,0.3865016999989166,,0
sub-021,inactive,pic-absent,0,0.0,2.0,1.0,0.535103700000036,11,1,correct rejection,0.535103700000036,0.535103700000036,,0
sub-021,active,pic-present,0,0.0,2.0,2.0,1.4353102999994007,11,0,miss,1.4353102999994007,,1.4353102999994007,0
sub-021,active,pic-present,1,0.0,2.0,3.0,0.4520501000006334,11,1,hit,0.4520501000006334,0.4520501000006334,,0
sub-021,inactive,pic-absent,0,0.0,3.0,0.0,0.446790999998484,12,1,correct rejection,0.446790999998484,0.446790999998484,,0
sub-021,active,pic-absent,0,0.0,3.0,1.0,0.546666100002767,12,1,correct rejection,0.546666100002767,0.546666100002767,,0
sub-021,inactive,pic-present,1,0.0,3.0,2.0,0.4117738999993889,12,1,hit,0.4117738999993889,0.4117738999993889,,0
sub-021,inactive,pic-absent,0,0.0,3.0,3.0,0.8437890999994124,12,1,correct rejection,0.8437890999994124,0.8437890999994124,,0
sub-021,inactive,pic-present,0,1.0,0.0,0.0,0.4083012000010058,21,0,miss,0.4083012000010058,,0.4083012000010058,0
sub-021,inactive,pic-present,1,1.0,0.0,1.0,0.4133426000007603,21,1,hit,0.4133426000007603,0.4133426000007603,,0
sub-021,active,pic-absent,0,1.0,0.0,2.0,0.4176322999992408,21,1,correct rejection,0.4176322999992408,0.4176322999992408,,0
sub-021,inactive,pic-absent,0,1.0,0.0,3.0,0.5670758999985992,21,1,correct rejection,0.5670758999985992,0.5670758999985992,,0
sub-021,active,pic-present,1,1.0,1.0,0.0,0.4917673000018112,22,1,hit,0.4917673000018112,0.4917673000018112,,0
sub-021,active,pic-absent,0,1.0,1.0,1.0,0.588757200002874,22,1,correct rejection,0.588757200002874,0.588757200002874,,0
sub-021,inactive,pic-present,0,1.0,1.0,2.0,0.7811777999995684,22,0,miss,0.7811777999995684,,0.7811777999995684,0
sub-021,inactive,pic-present,1,1.0,1.0,3.0,0.6013762000002316,22,1,hit,0.6013762000002316,0.6013762000002316,,0
sub-021,active,pic-absent,0,1.0,2.0,0.0,0.5474299999987124,23,1,correct rejection,0.5474299999987124,0.5474299999987124,,0
sub-021,inactive,pic-absent,0,1.0,2.0,1.0,0.5046861000009812,23,1,correct rejection,0.5046861000009812,0.5046861000009812,,0
sub-021,active,pic-present,1,1.0,2.0,2.0,0.3245399999977962,23,1,hit,0.3245399999977962,0.3245399999977962,,0
sub-021,active,pic-present,1,1.0,2.0,3.0,0.3725215999984357,23,1,hit,0.3725215999984357,0.3725215999984357,,0
sub-021,inactive,pic-absent,0,1.0,3.0,0.0,1.7533608000012464,24,1,correct rejection,1.7533608000012464,1.7533608000012464,,0
sub-021,active,pic-present,1,1.0,3.0,1.0,0.3929853999979968,24,1,hit,0.3929853999979968,0.3929853999979968,,0
sub-021,inactive,pic-absent,1,1.0,3.0,2.0,0.5464567999988503,24,0,false alarm,0.5464567999988503,,0.5464567999988503,0
sub-021,active,pic-absent,0,1.0,3.0,3.0,0.5514046999996935,24,1,correct rejection,0.5514046999996935,0.5514046999996935,,0
sub-023,active,pic-present,1,0.0,0.0,0.0,1.7621979999821633,9,1,hit,1.7621979999821633,1.7621979999821633,,0
sub-023,inactive,pic-absent,0,0.0,0.0,1.0,0.9262782000005244,9,1,correct rejection,0.9262782000005244,0.9262782000005244,,0
sub-023,inactive,pic-present,1,0.0,0.0,2.0,0.7907412999775261,9,1,hit,0.7907412999775261,0.7907412999775261,,0
sub-023,active,pic-present,1,0.0,0.0,3.0,0.3754353000549599,9,1,hit,0.3754353000549599,0.3754353000549599,,0
sub-023,inactive,pic-absent,0,0.0,1.0,0.0,1.8378865000559017,10,1,correct rejection,1.8378865000559017,1.8378865000559017,,0
sub-023,active,pic-present,1,0.0,1.0,1.0,0.5309907000046223,10,1,hit,0.5309907000046223,0.5309907000046223,,0
sub-023,active,pic-present,1,0.0,1.0,2.0,0.7268701000139117,10,1,hit,0.7268701000139117,0.7268701000139117,,0
sub-023,inactive,pic-absent,0,0.0,1.0,3.0,0.4085724999895319,10,1,correct rejection,0.4085724999895319,0.4085724999895319,,0
sub-023,active,pic-absent,0,0.0,2.0,0.0,0.7950548999942839,11,1,correct rejection,0.7950548999942839,0.7950548999942839,,0
sub-023,inactive,pic-present,1,0.0,2.0,1.0,0.518488600035198,11,1,hit,0.518488600035198,0.518488600035198,,0
sub-023,inactive,pic-absent,0,0.0,2.0,2.0,0.8516637999564409,11,1,correct rejection,0.8516637999564409,0.8516637999564409,,0
sub-023,active,pic-absent,0,0.0,2.0,3.0,1.235225100070238,11,1,correct rejection,1.235225100070238,1.235225100070238,,0
sub-023,inactive,pic-present,1,0.0,3.0,0.0,1.132081100018695,12,1,hit,1.132081100018695,1.132081100018695,,0
sub-023,active,pic-absent,0,0.0,3.0,1.0,0.9046049000462516,12,1,correct rejection,0.9046049000462516,0.9046049000462516,,0
sub-023,active,pic-absent,0,0.0,3.0,2.0,0.4449527999386191,12,1,correct rejection,0.4449527999386191,0.4449527999386191,,0
sub-023,inactive,pic-present,1,0.0,3.0,3.0,1.0662941000191497,12,1,hit,1.0662941000191497,1.0662941000191497,,0
sub-023,active,pic-absent,0,1.0,0.0,0.0,1.6322056000353768,21,1,correct rejection,1.6322056000353768,1.6322056000353768,,0
sub-023,inactive,pic-present,1,1.0,0.0,1.0,0.3677067999960854,21,1,hit,0.3677067999960854,0.3677067999960854,,0
sub-023,active,pic-absent,0,1.0,0.0,2.0,1.1290268000448125,21,1,correct rejection,1.1290268000448125,1.1290268000448125,,0
sub-023,inactive,pic-absent,0,1.0,0.0,3.0,1.6530404000077397,21,1,correct rejection,1.6530404000077397,1.6530404000077397,,0
sub-023,inactive,pic-present,1,1.0,1.0,0.0,0.5408659999957308,22,1,hit,0.5408659999957308,0.5408659999957308,,0
sub-023,active,pic-absent,0,1.0,1.0,1.0,0.8296539000002667,22,1,correct rejection,0.8296539000002667,0.8296539000002667,,0
sub-023,inactive,pic-present,1,1.0,1.0,2.0,0.3701438000425696,22,1,hit,0.3701438000425696,0.3701438000425696,,0
sub-023,active,pic-absent,0,1.0,1.0,3.0,1.130596000002697,22,1,correct rejection,1.130596000002697,1.130596000002697,,0
sub-023,active,pic-present,1,1.0,2.0,0.0,1.4700791001087057,23,1,hit,1.4700791001087057,1.4700791001087057,,0
sub-023,inactive,pic-absent,0,1.0,2.0,1.0,0.7298816998954862,23,1,correct rejection,0.7298816998954862,0.7298816998954862,,0
sub-023,active,pic-present,1,1.0,2.0,2.0,0.4583081000018865,23,1,hit,0.4583081000018865,0.4583081000018865,,0
sub-023,inactive,pic-present,0,1.0,2.0,3.0,0.5633653999539092,23,0,miss,0.5633653999539092,,0.5633653999539092,0
sub-023,inactive,pic-absent,1,1.0,3.0,0.0,1.2084930000128224,24,0,false alarm,1.2084930000128224,,1.2084930000128224,0
sub-023,active,pic-present,1,1.0,3.0,1.0,0.6973744999850169,24,1,hit,0.6973744999850169,0.6973744999850169,,0
sub-023,inactive,pic-absent,1,1.0,3.0,2.0,0.4252665999811142,24,0,false alarm,0.4252665999811142,,0.4252665999811142,0
sub-023,active,pic-present,0,1.0,3.0,3.0,1.0464317000005394,24,0,miss,1.0464317000005394,,1.0464317000005394,0
sub-024,inactive,pic-present,1,0.0,0.0,0.0,0.6440967000089586,9,1,hit,0.6440967000089586,0.6440967000089586,,0
sub-024,active,pic-absent,0,0.0,0.0,1.0,0.411989799933508,9,1,correct rejection,0.411989799933508,0.411989799933508,,0
sub-024,active,pic-absent,0,0.0,0.0,2.0,0.6969118000706658,9,1,correct rejection,0.6969118000706658,0.6969118000706658,,0
sub-024,inactive,pic-present,1,0.0,0.0,3.0,0.4696695999009534,9,1,hit,0.4696695999009534,0.4696695999009534,,0
sub-024,active,pic-absent,0,0.0,1.0,0.0,0.5902486999984831,10,1,correct rejection,0.5902486999984831,0.5902486999984831,,0
sub-024,inactive,pic-present,0,0.0,1.0,1.0,0.9265489000827074,10,0,miss,0.9265489000827074,,0.9265489000827074,0
sub-024,active,pic-present,1,0.0,1.0,2.0,0.4194673000602051,10,1,hit,0.4194673000602051,0.4194673000602051,,0
sub-024,active,pic-absent,0,0.0,1.0,3.0,0.4276363999815658,10,1,correct rejection,0.4276363999815658,0.4276363999815658,,0
sub-024,inactive,pic-absent,0,0.0,2.0,0.0,0.4483774999389425,11,1,correct rejection,0.4483774999389425,0.4483774999389425,,0
sub-024,active,pic-present,1,0.0,2.0,1.0,0.5514127999776974,11,1,hit,0.5514127999776974,0.5514127999776974,,0
sub-024,inactive,pic-absent,0,0.0,2.0,2.0,0.413074699928984,11,1,correct rejection,0.413074699928984,0.413074699928984,,0
sub-024,inactive,pic-absent,0,0.0,2.0,3.0,0.4208119999384507,11,1,correct rejection,0.4208119999384507,0.4208119999384507,,0
sub-024,active,pic-present,1,0.0,3.0,0.0,0.5792784000514075,12,1,hit,0.5792784000514075,0.5792784000514075,,0
sub-024,inactive,pic-absent,0,0.0,3.0,1.0,0.6753879999741912,12,1,correct rejection,0.6753879999741912,0.6753879999741912,,0
sub-024,inactive,pic-present,1,0.0,3.0,2.0,0.3556551999645307,12,1,hit,0.3556551999645307,0.3556551999645307,,0
sub-024,active,pic-present,1,0.0,3.0,3.0,0.5483986999606714,12,1,hit,0.5483986999606714,0.5483986999606714,,0
sub-024,active,pic-absent,0,1.0,0.0,0.0,0.4818104999139905,21,1,correct rejection,0.4818104999139905,0.4818104999139905,,0
sub-024,inactive,pic-present,1,1.0,0.0,1.0,0.389555100002326,21,1,hit,0.389555100002326,0.389555100002326,,0
sub-024,inactive,pic-present,1,1.0,0.0,2.0,0.350274300086312,21,1,hit,0.350274300086312,0.350274300086312,,0
sub-024,active,pic-absent,0,1.0,0.0,3.0,0.3585454999702051,21,1,correct rejection,0.3585454999702051,0.3585454999702051,,0
sub-024,inactive,pic-present,1,1.0,1.0,0.0,0.4079903999809176,22,1,hit,0.4079903999809176,0.4079903999809176,,0
sub-024,inactive,pic-absent,0,1.0,1.0,1.0,0.3680969000561163,22,1,correct rejection,0.3680969000561163,0.3680969000561163,,0
sub-024,active,pic-present,1,1.0,1.0,2.0,0.3727752999402582,22,1,hit,0.3727752999402582,0.3727752999402582,,0
sub-024,inactive,pic-absent,0,1.0,1.0,3.0,0.9931304999627172,22,1,correct rejection,0.9931304999627172,0.9931304999627172,,0
sub-024,inactive,pic-absent,0,1.0,2.0,0.0,0.3973498999839648,23,1,correct rejection,0.3973498999839648,0.3973498999839648,,0
sub-024,active,pic-present,1,1.0,2.0,1.0,0.3091020999709144,23,1,hit,0.3091020999709144,0.3091020999709144,,0
sub-024,active,pic-absent,0,1.0,2.0,2.0,0.3617866999702528,23,1,correct rejection,0.3617866999702528,0.3617866999702528,,0
sub-024,inactive,pic-present,1,1.0,2.0,3.0,1.3110707000596449,23,1,hit,1.3110707000596449,1.3110707000596449,,0
sub-024,active,pic-present,1,1.0,3.0,0.0,0.6634098999202251,24,1,hit,0.6634098999202251,0.6634098999202251,,0
sub-024,active,pic-absent,0,1.0,3.0,1.0,0.3439925001002848,24,1,correct rejection,0.3439925001002848,0.3439925001002848,,0
sub-024,inactive,pic-absent,0,1.0,3.0,2.0,0.3961148000089451,24,1,correct rejection,0.3961148000089451,0.3961148000089451,,0
sub-024,active,pic-present,1,1.0,3.0,3.0,0.3566976999863982,24,1,hit,0.3566976999863982,0.3566976999863982,,0
sub-025,active,pic-present,1,0.0,0.0,0.0,0.9676783999893814,9,1,hit,0.9676783999893814,0.9676783999893814,,0
sub-025,inactive,pic-absent,0,0.0,0.0,1.0,0.739024099893868,9,1,correct rejection,0.739024099893868,0.739024099893868,,0
sub-025,active,pic-absent,0,0.0,0.0,2.0,1.1239493999164551,9,1,correct rejection,1.1239493999164551,1.1239493999164551,,0
sub-025,inactive,pic-present,0,0.0,0.0,3.0,1.6484564000274986,9,0,miss,1.6484564000274986,,1.6484564000274986,0
sub-025,inactive,pic-absent,1,0.0,1.0,0.0,0.5179325999924913,10,0,false alarm,0.5179325999924913,,0.5179325999924913,0
sub-025,active,pic-present,1,0.0,1.0,1.0,0.809704800019972,10,1,hit,0.809704800019972,0.809704800019972,,0
sub-025,inactive,pic-absent,0,0.0,1.0,2.0,1.7155576000222936,10,1,correct rejection,1.7155576000222936,1.7155576000222936,,0
sub-025,active,pic-present,1,0.0,1.0,3.0,0.4070555999642238,10,1,hit,0.4070555999642238,0.4070555999642238,,0
sub-025,active,pic-absent,0,0.0,2.0,0.0,0.4652084000408649,11,1,correct rejection,0.4652084000408649,0.4652084000408649,,0
sub-025,inactive,pic-present,1,0.0,2.0,1.0,0.4258433000650257,11,1,hit,0.4258433000650257,0.4258433000650257,,0
sub-025,active,pic-present,1,0.0,2.0,2.0,0.3389482999918982,11,1,hit,0.3389482999918982,0.3389482999918982,,0
sub-025,active,pic-absent,0,0.0,2.0,3.0,0.3469563000835478,11,1,correct rejection,0.3469563000835478,0.3469563000835478,,0
sub-025,inactive,pic-present,1,0.0,3.0,0.0,0.3061130000278353,12,1,hit,0.3061130000278353,0.3061130000278353,,0
sub-025,active,pic-absent,0,0.0,3.0,1.0,0.4542561999987811,12,1,correct rejection,0.4542561999987811,0.4542561999987811,,0
sub-025,inactive,pic-present,0,0.0,3.0,2.0,0.8382946000201628,12,0,miss,0.8382946000201628,,0.8382946000201628,0
sub-025,inactive,pic-absent,1,0.0,3.0,3.0,0.6114230999955907,12,0,false alarm,0.6114230999955907,,0.6114230999955907,0
sub-025,inactive,pic-present,1,1.0,0.0,0.0,0.415677500073798,21,1,hit,0.415677500073798,0.415677500073798,,0
sub-025,inactive,pic-absent,1,1.0,0.0,1.0,0.5675555999623612,21,0,false alarm,0.5675555999623612,,0.5675555999623612,0
sub-025,active,pic-present,1,1.0,0.0,2.0,0.6678620999446139,21,1,hit,0.6678620999446139,0.6678620999446139,,0
sub-025,active,pic-present,1,1.0,0.0,3.0,1.049555099918507,21,1,hit,1.049555099918507,1.049555099918507,,0
sub-025,inactive,pic-absent,0,1.0,1.0,0.0,0.7289199000224471,22,1,correct rejection,0.7289199000224471,0.7289199000224471,,0
sub-025,active,pic-present,1,1.0,1.0,1.0,0.4487913000630215,22,1,hit,0.4487913000630215,0.4487913000630215,,0
sub-025,inactive,pic-present,1,1.0,1.0,2.0,0.5495421000523493,22,1,hit,0.5495421000523493,0.5495421000523493,,0
sub-025,inactive,pic-absent,0,1.0,1.0,3.0,0.4660110999830067,22,1,correct rejection,0.4660110999830067,0.4660110999830067,,0
sub-025,active,pic-absent,0,1.0,2.0,0.0,0.3559137999545783,23,1,correct rejection,0.3559137999545783,0.3559137999545783,,0
sub-025,inactive,pic-present,1,1.0,2.0,1.0,0.3641657999251038,23,1,hit,0.3641657999251038,0.3641657999251038,,0
sub-025,active,pic-absent,1,1.0,2.0,2.0,0.8448881000513211,23,0,false alarm,0.8448881000513211,,0.8448881000513211,0
sub-025,inactive,pic-present,0,1.0,2.0,3.0,1.4654461999889463,23,0,miss,1.4654461999889463,,1.4654461999889463,0
sub-025,active,pic-present,1,1.0,3.0,0.0,0.4126280000200495,24,1,hit,0.4126280000200495,0.4126280000200495,,0
sub-025,active,pic-absent,0,1.0,3.0,1.0,0.4689184000017121,24,1,correct rejection,0.4689184000017121,0.4689184000017121,,0
sub-025,inactive,pic-absent,0,1.0,3.0,2.0,1.3693681000731883,24,1,correct rejection,1.3693681000731883,1.3693681000731883,,0
sub-025,active,pic-absent,0,1.0,3.0,3.0,1.5619032999966294,24,1,correct rejection,1.5619032999966294,1.5619032999966294,,0
sub-026,active,pic-absent,1,0.0,0.0,0.0,1.1111446000868457,9,0,false alarm,1.1111446000868457,,1.1111446000868457,0
sub-026,active,pic-absent,0,0.0,0.0,1.0,0.3632963000563904,9,1,correct rejection,0.3632963000563904,0.3632963000563904,,0
sub-026,inactive,pic-present,1,0.0,0.0,2.0,1.027413500007242,9,1,hit,1.027413500007242,1.027413500007242,,0
sub-026,active,pic-absent,0,0.0,0.0,3.0,0.3774444999871775,9,1,correct rejection,0.3774444999871775,0.3774444999871775,,0
sub-026,active,pic-present,1,0.0,1.0,0.0,0.2949468999868259,10,1,hit,0.2949468999868259,0.2949468999868259,,0
sub-026,inactive,pic-present,0,0.0,1.0,1.0,0.4917694999603554,10,0,miss,0.4917694999603554,,0.4917694999603554,0
sub-026,inactive,pic-absent,0,0.0,1.0,2.0,0.3114991000620648,10,1,correct rejection,0.3114991000620648,0.3114991000620648,,0
sub-026,active,pic-present,0,0.0,1.0,3.0,0.4520419000182301,10,0,miss,0.4520419000182301,,0.4520419000182301,0
sub-026,inactive,pic-absent,1,0.0,2.0,0.0,0.5158325999509543,11,0,false alarm,0.5158325999509543,,0.5158325999509543,0
sub-026,inactive,pic-absent,0,0.0,2.0,1.0,0.3285398000152781,11,1,correct rejection,0.3285398000152781,0.3285398000152781,,0
sub-026,active,pic-present,1,0.0,2.0,2.0,0.3361845999024808,11,1,hit,0.3361845999024808,0.3361845999024808,,0
sub-026,inactive,pic-absent,0,0.0,2.0,3.0,0.345699300058186,11,1,correct rejection,0.345699300058186,0.345699300058186,,0
sub-026,inactive,pic-present,0,0.0,3.0,0.0,0.4328737000469118,12,0,miss,0.4328737000469118,,0.4328737000469118,0
sub-026,active,pic-present,1,0.0,3.0,1.0,0.4890148000558838,12,1,hit,0.4890148000558838,0.4890148000558838,,0
sub-026,active,pic-absent,0,0.0,3.0,2.0,0.4014731999486685,12,1,correct rejection,0.4014731999486685,0.4014731999486685,,0
sub-026,inactive,pic-present,0,0.0,3.0,3.0,0.3134215000318363,12,0,miss,0.3134215000318363,,0.3134215000318363,0
sub-026,inactive,pic-present,1,1.0,0.0,0.0,1.076289499993436,21,1,hit,1.076289499993436,1.076289499993436,,0
sub-026,active,pic-absent,0,1.0,0.0,1.0,0.3324453999521211,21,1,correct rejection,0.3324453999521211,0.3324453999521211,,0
sub-026,active,pic-absent,0,1.0,0.0,2.0,0.3891213000752032,21,1,correct rejection,0.3891213000752032,0.3891213000752032,,0
sub-026,inactive,pic-present,1,1.0,0.0,3.0,0.4896527000237256,21,1,hit,0.4896527000237256,0.4896527000237256,,0
sub-026,inactive,pic-absent,0,1.0,1.0,0.0,0.7055370999732986,22,1,correct rejection,0.7055370999732986,0.7055370999732986,,0
sub-026,active,pic-present,0,1.0,1.0,1.0,0.434480500058271,22,0,miss,0.434480500058271,,0.434480500058271,0
sub-026,active,pic-present,0,1.0,1.0,2.0,0.3424794999882579,22,0,miss,0.3424794999882579,,0.3424794999882579,0
sub-026,inactive,pic-absent,0,1.0,1.0,3.0,0.6782098000403494,22,1,correct rejection,0.6782098000403494,0.6782098000403494,,0
sub-026,active,pic-absent,1,1.0,2.0,0.0,0.3519842000678181,23,0,false alarm,0.3519842000678181,,0.3519842000678181,0
sub-026,inactive,pic-present,0,1.0,2.0,1.0,0.4966653999872505,23,0,miss,0.4966653999872505,,0.4966653999872505,0
sub-026,inactive,pic-present,1,1.0,2.0,2.0,0.4131257999688387,23,1,hit,0.4131257999688387,0.4131257999688387,,0
sub-026,active,pic-absent,0,1.0,2.0,3.0,0.5612845999421552,23,1,correct rejection,0.5612845999421552,0.5612845999421552,,0
sub-026,active,pic-present,1,1.0,3.0,0.0,0.390248299925588,24,1,hit,0.390248299925588,0.390248299925588,,0
sub-026,inactive,pic-absent,0,1.0,3.0,1.0,0.962149199913256,24,1,correct rejection,0.962149199913256,0.962149199913256,,0
sub-026,inactive,pic-absent,0,1.0,3.0,2.0,0.4513546000234782,24,1,correct rejection,0.4513546000234782,0.4513546000234782,,0
sub-026,active,pic-present,1,1.0,3.0,3.0,0.3633003999711945,24,1,hit,0.3633003999711945,0.3633003999711945,,0
sub-027,active,pic-absent,0,0.0,0.0,0.0,1.923315100022592,9,1,correct rejection,1.923315100022592,1.923315100022592,,0
sub-027,inactive,pic-present,1,0.0,0.0,1.0,0.7478839999530464,9,1,hit,0.7478839999530464,0.7478839999530464,,0
sub-027,active,pic-absent,1,0.0,0.0,2.0,2.112293199985288,9,0,false alarm,2.112293199985288,,2.112293199985288,0
sub-027,inactive,pic-present,1,0.0,0.0,3.0,0.5123847000068054,9,1,hit,0.5123847000068054,0.5123847000068054,,0
sub-027,active,pic-present,1,0.0,1.0,0.0,0.7169051000382751,10,1,hit,0.7169051000382751,0.7169051000382751,,0
sub-027,inactive,pic-absent,0,0.0,1.0,1.0,0.8126305000623688,10,1,correct rejection,0.8126305000623688,0.8126305000623688,,0
sub-027,active,pic-present,1,0.0,1.0,2.0,0.6731884001055732,10,1,hit,0.6731884001055732,0.6731884001055732,,0
sub-027,inactive,pic-absent,0,0.0,1.0,3.0,0.8655441999435425,10,1,correct rejection,0.8655441999435425,0.8655441999435425,,0
sub-027,inactive,pic-absent,0,0.0,2.0,0.0,0.8428673000307754,11,1,correct rejection,0.8428673000307754,0.8428673000307754,,0
sub-027,active,pic-present,1,0.0,2.0,1.0,0.5142099999357015,11,1,hit,0.5142099999357015,0.5142099999357015,,0
sub-027,inactive,pic-present,1,0.0,2.0,2.0,1.1315155000193045,11,1,hit,1.1315155000193045,1.1315155000193045,,0
sub-027,active,pic-absent,0,0.0,2.0,3.0,1.3186672000447288,11,1,correct rejection,1.3186672000447288,1.3186672000447288,,0
sub-027,inactive,pic-present,1,0.0,3.0,0.0,0.4423389999428764,12,1,hit,0.4423389999428764,0.4423389999428764,,0
sub-027,active,pic-absent,0,0.0,3.0,1.0,0.9679416000144556,12,1,correct rejection,0.9679416000144556,0.9679416000144556,,0
sub-027,inactive,pic-absent,0,0.0,3.0,2.0,1.015802700072527,12,1,correct rejection,1.015802700072527,1.015802700072527,,0
sub-027,active,pic-present,1,0.0,3.0,3.0,0.8793596000177786,12,1,hit,0.8793596000177786,0.8793596000177786,,0
sub-027,active,pic-absent,0,1.0,0.0,0.0,0.9487626000773162,21,1,correct rejection,0.9487626000773162,0.9487626000773162,,0
sub-027,inactive,pic-absent,0,1.0,0.0,1.0,0.6730813999893144,21,1,correct rejection,0.6730813999893144,0.6730813999893144,,0
sub-027,active,pic-present,1,1.0,0.0,2.0,0.7733922000043094,21,1,hit,0.7733922000043094,0.7733922000043094,,0
sub-027,active,pic-present,1,1.0,0.0,3.0,1.2981218000641093,21,1,hit,1.2981218000641093,1.2981218000641093,,0
sub-027,inactive,pic-absent,0,1.0,1.0,0.0,1.151700200047344,22,1,correct rejection,1.151700200047344,1.151700200047344,,0
sub-027,inactive,pic-present,1,1.0,1.0,1.0,0.5001619999529794,22,1,hit,0.5001619999529794,0.5001619999529794,,0
sub-027,active,pic-absent,0,1.0,1.0,2.0,0.9285336999455468,22,1,correct rejection,0.9285336999455468,0.9285336999455468,,0
sub-027,active,pic-absent,0,1.0,1.0,3.0,2.770400600042194,22,1,correct rejection,2.770400600042194,2.770400600042194,,0
sub-027,inactive,pic-present,1,1.0,2.0,0.0,1.1859364999691024,23,1,hit,1.1859364999691024,1.1859364999691024,,0
sub-027,active,pic-present,1,1.0,2.0,1.0,0.6222063999157399,23,1,hit,0.6222063999157399,0.6222063999157399,,0
sub-027,inactive,pic-absent,0,1.0,2.0,2.0,2.3661460999865085,23,1,correct rejection,2.3661460999865085,2.3661460999865085,,0
sub-027,inactive,pic-present,1,1.0,2.0,3.0,0.6787119000218809,23,1,hit,0.6787119000218809,0.6787119000218809,,0
sub-027,active,pic-present,1,1.0,3.0,0.0,0.8826985999476165,24,1,hit,0.8826985999476165,0.8826985999476165,,0
sub-027,active,pic-absent,0,1.0,3.0,1.0,0.5155438000801951,24,1,correct rejection,0.5155438000801951,0.5155438000801951,,0
sub-027,inactive,pic-present,1,1.0,3.0,2.0,1.1719976000022143,24,1,hit,1.1719976000022143,1.1719976000022143,,0
sub-027,inactive,pic-absent,0,1.0,3.0,3.0,1.0838518000673505,24,1,correct rejection,1.0838518000673505,1.0838518000673505,,0
sub-028,inactive,pic-absent,1,0.0,0.0,0.0,1.6708217000123111,9,0,false alarm,1.6708217000123111,,1.6708217000123111,0
sub-028,active,pic-absent,0,0.0,0.0,1.0,0.3673481000587344,9,1,correct rejection,0.3673481000587344,0.3673481000587344,,0
sub-028,inactive,pic-present,1,0.0,0.0,2.0,0.3270704000024125,9,1,hit,0.3270704000024125,0.3270704000024125,,0
sub-028,inactive,pic-present,1,0.0,0.0,3.0,0.5681324999313802,9,1,hit,0.5681324999313802,0.5681324999313802,,0
sub-028,active,pic-absent,0,0.0,1.0,0.0,0.3995751000475138,10,1,correct rejection,0.3995751000475138,0.3995751000475138,,0
sub-028,inactive,pic-present,1,0.0,1.0,1.0,0.4553273998899385,10,1,hit,0.4553273998899385,0.4553273998899385,,0
sub-028,inactive,pic-absent,0,0.0,1.0,2.0,1.0278294999152422,10,1,correct rejection,1.0278294999152422,1.0278294999152422,,0
sub-028,active,pic-absent,0,0.0,1.0,3.0,0.4283175999298692,10,1,correct rejection,0.4283175999298692,0.4283175999298692,,0
sub-028,active,pic-present,1,0.0,2.0,0.0,0.4960707999998703,11,1,hit,0.4960707999998703,0.4960707999998703,,0
sub-028,inactive,pic-absent,1,0.0,2.0,1.0,0.3635451000882312,11,0,false alarm,0.3635451000882312,,0.3635451000882312,0
sub-028,active,pic-present,1,0.0,2.0,2.0,0.3285515999887138,11,1,hit,0.3285515999887138,0.3285515999887138,,0
sub-028,inactive,pic-absent,0,0.0,2.0,3.0,0.5287487000459805,11,1,correct rejection,0.5287487000459805,0.5287487000459805,,0
sub-028,inactive,pic-present,0,0.0,3.0,0.0,1.5854530000360685,12,0,miss,1.5854530000360685,,1.5854530000360685,0
sub-028,active,pic-present,1,0.0,3.0,1.0,0.5619589999550954,12,1,hit,0.5619589999550954,0.5619589999550954,,0
sub-028,active,pic-absent,1,0.0,3.0,2.0,0.3826107999775558,12,0,false alarm,0.3826107999775558,,0.3826107999775558,0
sub-028,active,pic-present,1,0.0,3.0,3.0,0.3903568999376148,12,1,hit,0.3903568999376148,0.3903568999376148,,0
sub-028,inactive,pic-present,0,1.0,0.0,0.0,0.6492586999665946,21,0,miss,0.6492586999665946,,0.6492586999665946,0
sub-028,active,pic-absent,1,1.0,0.0,1.0,0.3724357999162748,21,0,false alarm,0.3724357999162748,,0.3724357999162748,0
sub-028,active,pic-absent,0,1.0,0.0,2.0,0.381730500026606,21,1,correct rejection,0.381730500026606,0.381730500026606,,0
sub-028,inactive,pic-present,1,1.0,0.0,3.0,1.0021814999636265,21,1,hit,1.0021814999636265,1.0021814999636265,,0
sub-028,active,pic-absent,1,1.0,1.0,0.0,0.6920137000270188,22,0,false alarm,0.6920137000270188,,0.6920137000270188,0
sub-028,inactive,pic-absent,0,1.0,1.0,1.0,0.3724041999084875,22,1,correct rejection,0.3724041999084875,0.3724041999084875,,0
sub-028,inactive,pic-present,0,1.0,1.0,2.0,1.5091190999373794,22,0,miss,1.5091190999373794,,1.5091190999373794,0
sub-028,active,pic-present,1,1.0,1.0,3.0,0.4368820000672713,22,1,hit,0.4368820000672713,0.4368820000672713,,0
sub-028,inactive,pic-absent,0,1.0,2.0,0.0,0.4786172000458464,23,1,correct rejection,0.4786172000458464,0.4786172000458464,,0
sub-028,inactive,pic-present,1,1.0,2.0,1.0,0.4427564999787137,23,1,hit,0.4427564999787137,0.4427564999787137,,0
sub-028,active,pic-present,1,1.0,2.0,2.0,0.40370859997347,23,1,hit,0.40370859997347,0.40370859997347,,0
sub-028,inactive,pic-absent,0,1.0,2.0,3.0,0.6481832999270409,23,1,correct rejection,0.6481832999270409,0.6481832999270409,,0
sub-028,active,pic-present,1,1.0,3.0,0.0,0.5905578000238165,24,1,hit,0.5905578000238165,0.5905578000238165,,0
sub-028,active,pic-present,1,1.0,3.0,1.0,0.4115939999464899,24,1,hit,0.4115939999464899,0.4115939999464899,,0
sub-028,inactive,pic-absent,1,1.0,3.0,2.0,0.6556282999226823,24,0,false alarm,0.6556282999226823,,0.6556282999226823,0
sub-028,active,pic-absent,0,1.0,3.0,3.0,0.6680855000158772,24,1,correct rejection,0.6680855000158772,0.6680855000158772,,0
sub-030,inactive,pic-absent,0,0.0,0.0,0.0,1.3003118999768049,9,1,correct rejection,1.3003118999768049,1.3003118999768049,,0
sub-030,inactive,pic-present,0,0.0,0.0,1.0,1.405096200061962,9,0,miss,1.405096200061962,,1.405096200061962,0
sub-030,active,pic-absent,0,0.0,0.0,2.0,1.601484099868685,9,1,correct rejection,1.601484099868685,1.601484099868685,,0
sub-030,active,pic-absent,0,0.0,0.0,3.0,1.8932973998598757,9,1,correct rejection,1.8932973998598757,1.8932973998598757,,0
sub-030,inactive,pic-present,1,0.0,1.0,0.0,0.9381947000510992,10,1,hit,0.9381947000510992,0.9381947000510992,,0
sub-030,active,pic-absent,0,0.0,1.0,1.0,1.2742023000027984,10,1,correct rejection,1.2742023000027984,1.2742023000027984,,0
sub-030,inactive,pic-present,1,0.0,1.0,2.0,0.954125399934128,10,1,hit,0.954125399934128,0.954125399934128,,0
sub-030,active,pic-present,1,0.0,1.0,3.0,1.1517193000763657,10,1,hit,1.1517193000763657,1.1517193000763657,,0
sub-030,active,pic-absent,0,0.0,2.0,0.0,1.7653719999361783,11,1,correct rejection,1.7653719999361783,1.7653719999361783,,0
sub-030,inactive,pic-absent,0,0.0,2.0,1.0,1.3494141998235136,11,1,correct rejection,1.3494141998235136,1.3494141998235136,,0
sub-030,active,pic-present,1,0.0,2.0,2.0,0.9807453998364508,11,1,hit,0.9807453998364508,0.9807453998364508,,0
sub-030,inactive,pic-absent,0,0.0,2.0,3.0,1.1339048999361694,11,1,correct rejection,1.1339048999361694,1.1339048999361694,,0
sub-030,active,pic-present,1,0.0,3.0,0.0,0.9017156001646072,12,1,hit,0.9017156001646072,0.9017156001646072,,0
sub-030,active,pic-present,1,0.0,3.0,1.0,0.913969999877736,12,1,hit,0.913969999877736,0.913969999877736,,0
sub-030,inactive,pic-absent,0,0.0,3.0,2.0,1.4384779001120478,12,1,correct rejection,1.4384779001120478,1.4384779001120478,,0
sub-030,inactive,pic-present,1,0.0,3.0,3.0,1.1679622998926789,12,1,hit,1.1679622998926789,1.1679622998926789,,0
sub-030,active,pic-present,1,1.0,0.0,0.0,1.003759300103411,21,1,hit,1.003759300103411,1.003759300103411,,0
sub-030,inactive,pic-absent,0,1.0,0.0,1.0,1.2038720999844372,21,1,correct rejection,1.2038720999844372,1.2038720999844372,,0
sub-030,active,pic-absent,0,1.0,0.0,2.0,1.164689100114629,21,1,correct rejection,1.164689100114629,1.164689100114629,,0
sub-030,active,pic-present,1,1.0,0.0,3.0,1.125474900007248,21,1,hit,1.125474900007248,1.125474900007248,,0
sub-030,inactive,pic-absent,1,1.0,1.0,0.0,1.1864177999086678,22,0,false alarm,1.1864177999086678,,1.1864177999086678,0
sub-030,active,pic-present,0,1.0,1.0,1.0,2.1345069999806583,22,0,miss,2.1345069999806583,,2.1345069999806583,0
sub-030,active,pic-present,1,1.0,1.0,2.0,1.0149020000826567,22,1,hit,1.0149020000826567,1.0149020000826567,,0
sub-030,inactive,pic-absent,0,1.0,1.0,3.0,1.1634472999721766,22,1,correct rejection,1.1634472999721766,1.1634472999721766,,0
sub-030,active,pic-absent,0,1.0,2.0,0.0,1.1253357999958098,23,1,correct rejection,1.1253357999958098,1.1253357999958098,,0
sub-030,inactive,pic-present,1,1.0,2.0,1.0,0.9939587998669596,23,1,hit,0.9939587998669596,0.9939587998669596,,0
sub-030,inactive,pic-absent,0,1.0,2.0,2.0,1.0025415997952225,23,1,correct rejection,1.0025415997952225,1.0025415997952225,,0
sub-030,active,pic-absent,0,1.0,2.0,3.0,1.0592600000090897,23,1,correct rejection,1.0592600000090897,1.0592600000090897,,0
sub-030,inactive,pic-present,1,1.0,3.0,0.0,1.191366699989885,24,1,hit,1.191366699989885,1.191366699989885,,0
sub-030,active,pic-absent,0,1.0,3.0,1.0,1.0119892000220716,24,1,correct rejection,1.0119892000220716,1.0119892000220716,,0
sub-030,inactive,pic-present,1,1.0,3.0,2.0,1.1639424001332372,24,1,hit,1.1639424001332372,1.1639424001332372,,0
sub-030,inactive,pic-present,1,1.0,3.0,3.0,0.8404294000938535,24,1,hit,0.8404294000938535,0.8404294000938535,,0
sub-031,inactive,pic-present,1,0.0,0.0,0.0,1.8725747999269515,9,1,hit,1.8725747999269515,1.8725747999269515,,0
sub-031,active,pic-absent,0,0.0,0.0,1.0,0.7965489998459816,9,1,correct rejection,0.7965489998459816,0.7965489998459816,,0
sub-031,inactive,pic-present,1,0.0,0.0,2.0,0.8011543001048267,9,1,hit,0.8011543001048267,0.8011543001048267,,0
sub-031,active,pic-present,1,0.0,0.0,3.0,0.6224730000831187,9,1,hit,0.6224730000831187,0.6224730000831187,,0
sub-031,active,pic-absent,1,0.0,1.0,0.0,1.37150299991481,10,0,false alarm,1.37150299991481,,1.37150299991481,0
sub-031,inactive,pic-absent,0,0.0,1.0,1.0,0.7199889000039548,10,1,correct rejection,0.7199889000039548,0.7199889000039548,,0
sub-031,active,pic-present,1,0.0,1.0,2.0,1.2805433999747038,10,1,hit,1.2805433999747038,1.2805433999747038,,0
sub-031,inactive,pic-absent,0,0.0,1.0,3.0,0.4450634000822902,10,1,correct rejection,0.4450634000822902,0.4450634000822902,,0
sub-031,active,pic-present,1,0.0,2.0,0.0,0.6328551999758929,11,1,hit,0.6328551999758929,0.6328551999758929,,0
sub-031,inactive,pic-present,1,0.0,2.0,1.0,1.1567621999420226,11,1,hit,1.1567621999420226,1.1567621999420226,,0
sub-031,active,pic-absent,1,0.0,2.0,2.0,1.868817799957469,11,0,false alarm,1.868817799957469,,1.868817799957469,0
sub-031,inactive,pic-present,1,0.0,2.0,3.0,0.9375702999532224,11,1,hit,0.9375702999532224,0.9375702999532224,,0
sub-031,inactive,pic-absent,0,0.0,3.0,0.0,2.3100928000640124,12,1,correct rejection,2.3100928000640124,2.3100928000640124,,0
sub-031,active,pic-present,1,0.0,3.0,1.0,0.8064204000402242,12,1,hit,0.8064204000402242,0.8064204000402242,,0
sub-031,inactive,pic-absent,0,0.0,3.0,2.0,0.3910990001168102,12,1,correct rejection,0.3910990001168102,0.3910990001168102,,0
sub-031,active,pic-absent,0,0.0,3.0,3.0,1.094796200050041,12,1,correct rejection,1.094796200050041,1.094796200050041,,0
sub-031,active,pic-absent,1,1.0,0.0,0.0,1.9945751000195744,21,0,false alarm,1.9945751000195744,,1.9945751000195744,0
sub-031,active,pic-present,1,1.0,0.0,1.0,0.7318252001423389,21,1,hit,0.7318252001423389,0.7318252001423389,,0
sub-031,inactive,pic-present,1,1.0,0.0,2.0,0.6958448998630047,21,1,hit,0.6958448998630047,0.6958448998630047,,0
sub-031,active,pic-absent,0,1.0,0.0,3.0,0.6126826999243349,21,1,correct rejection,0.6126826999243349,0.6126826999243349,,0
sub-031,inactive,pic-absent,0,1.0,1.0,0.0,1.8233709000051024,22,1,correct rejection,1.8233709000051024,1.8233709000051024,,0
sub-031,inactive,pic-present,1,1.0,1.0,1.0,1.735213999869302,22,1,hit,1.735213999869302,1.735213999869302,,0
sub-031,active,pic-present,1,1.0,1.0,2.0,0.7606622998137027,22,1,hit,0.7606622998137027,0.7606622998137027,,0
sub-031,inactive,pic-absent,0,1.0,1.0,3.0,0.6244212000165135,22,1,correct rejection,0.6244212000165135,0.6244212000165135,,0
sub-031,active,pic-present,1,1.0,2.0,0.0,0.4862963000778109,23,1,hit,0.4862963000778109,0.4862963000778109,,0
sub-031,inactive,pic-absent,0,1.0,2.0,1.0,1.293628100072965,23,1,correct rejection,1.293628100072965,1.293628100072965,,0
sub-031,active,pic-absent,1,1.0,2.0,2.0,0.5468320001382381,23,0,false alarm,0.5468320001382381,,0.5468320001382381,0
sub-031,active,pic-present,1,1.0,2.0,3.0,0.5514330000150949,23,1,hit,0.5514330000150949,0.5514330000150949,,0
sub-031,inactive,pic-present,1,1.0,3.0,0.0,0.4305755998939276,24,1,hit,0.4305755998939276,0.4305755998939276,,0
sub-031,active,pic-absent,1,1.0,3.0,1.0,0.6720517000649124,24,0,false alarm,0.6720517000649124,,0.6720517000649124,0
sub-031,inactive,pic-absent,1,1.0,3.0,2.0,0.5329609999898821,24,0,false alarm,0.5329609999898821,,0.5329609999898821,0
sub-031,inactive,pic-present,1,1.0,3.0,3.0,0.3963494999334216,24,1,hit,0.3963494999334216,0.3963494999334216,,0
sub-032,active,pic-absent,0,0.0,0.0,0.0,1.103054199833423,9,1,correct rejection,1.103054199833423,1.103054199833423,,0
sub-032,inactive,pic-present,0,0.0,0.0,1.0,1.018130299868062,9,0,miss,1.018130299868062,,1.018130299868062,0
sub-032,active,pic-present,1,0.0,0.0,2.0,1.0273919000755996,9,1,hit,1.0273919000755996,1.0273919000755996,,0
sub-032,inactive,pic-absent,0,0.0,0.0,3.0,1.3199742001015693,9,1,correct rejection,1.3199742001015693,1.3199742001015693,,0
sub-032,inactive,pic-present,1,0.0,1.0,0.0,1.1995587998535484,10,1,hit,1.1995587998535484,1.1995587998535484,,0
sub-032,active,pic-present,1,0.0,1.0,1.0,1.1604269000235945,10,1,hit,1.1604269000235945,1.1604269000235945,,0
sub-032,inactive,pic-absent,0,0.0,1.0,2.0,1.21755150007084,10,1,correct rejection,1.21755150007084,1.21755150007084,,0
sub-032,active,pic-absent,0,0.0,1.0,3.0,1.3213682998903096,10,1,correct rejection,1.3213682998903096,1.3213682998903096,,0
sub-032,active,pic-present,1,0.0,2.0,0.0,1.3527803998440504,11,1,hit,1.3527803998440504,1.3527803998440504,,0
sub-032,inactive,pic-absent,1,0.0,2.0,1.0,1.3622991999145595,11,0,false alarm,1.3622991999145595,,1.3622991999145595,0
sub-032,active,pic-absent,1,0.0,2.0,2.0,1.4214216000400484,11,0,false alarm,1.4214216000400484,,1.4214216000400484,0
sub-032,inactive,pic-present,1,0.0,2.0,3.0,1.194215200142935,11,1,hit,1.194215200142935,1.194215200142935,,0
sub-032,inactive,pic-absent,1,0.0,3.0,0.0,1.0761520999949423,12,0,false alarm,1.0761520999949423,,1.0761520999949423,0
sub-032,active,pic-absent,1,0.0,3.0,1.0,1.3644675998948514,12,0,false alarm,1.3644675998948514,,1.3644675998948514,0
sub-032,inactive,pic-present,0,0.0,3.0,2.0,1.189233899815008,12,0,miss,1.189233899815008,,1.189233899815008,0
sub-032,active,pic-present,0,0.0,3.0,3.0,1.1056885002180934,12,0,miss,1.1056885002180934,,1.1056885002180934,0
sub-032,active,pic-present,1,1.0,0.0,0.0,0.9745755998883396,21,1,hit,0.9745755998883396,0.9745755998883396,,0
sub-032,inactive,pic-absent,0,1.0,0.0,1.0,1.314797200029716,21,1,correct rejection,1.314797200029716,1.314797200029716,,0
sub-032,active,pic-present,1,1.0,0.0,2.0,1.1351441000588238,21,1,hit,1.1351441000588238,1.1351441000588238,,0
sub-032,active,pic-present,0,1.0,0.0,3.0,1.2399869000073522,21,0,miss,1.2399869000073522,,1.2399869000073522,0
sub-032,inactive,pic-absent,1,1.0,1.0,0.0,1.3895088999997824,22,0,false alarm,1.3895088999997824,,1.3895088999997824,0
sub-032,active,pic-present,1,1.0,1.0,1.0,1.210153799969703,22,1,hit,1.210153799969703,1.210153799969703,,0
sub-032,inactive,pic-present,1,1.0,1.0,2.0,1.2231367998756468,22,1,hit,1.2231367998756468,1.2231367998756468,,0
sub-032,active,pic-absent,0,1.0,1.0,3.0,1.1386279999278486,22,1,correct rejection,1.1386279999278486,1.1386279999278486,,0
sub-032,inactive,pic-present,1,1.0,2.0,0.0,1.1408976998645812,23,1,hit,1.1408976998645812,1.1408976998645812,,0
sub-032,active,pic-absent,0,1.0,2.0,1.0,1.384493299992755,23,1,correct rejection,1.384493299992755,1.384493299992755,,0
sub-032,active,pic-absent,1,1.0,2.0,2.0,1.4465458998456595,23,0,false alarm,1.4465458998456595,,1.4465458998456595,0
sub-032,inactive,pic-present,1,1.0,2.0,3.0,1.2218887000344694,23,1,hit,1.2218887000344694,1.2218887000344694,,0
sub-032,active,pic-absent,1,1.0,3.0,0.0,1.363342700060457,24,0,false alarm,1.363342700060457,,1.363342700060457,0
sub-032,inactive,pic-present,1,1.0,3.0,1.0,1.4239318000618368,24,1,hit,1.4239318000618368,1.4239318000618368,,0
sub-032,inactive,pic-absent,0,1.0,3.0,2.0,1.1522446000017226,24,1,correct rejection,1.1522446000017226,1.1522446000017226,,0
sub-032,inactive,pic-absent,0,1.0,3.0,3.0,1.1121356000658125,24,1,correct rejection,1.1121356000658125,1.1121356000658125,,0
sub-035,inactive,pic-present,1,0.0,0.0,0.0,0.6867466000840068,9,1,hit,0.6867466000840068,0.6867466000840068,,0
sub-035,inactive,pic-absent,0,0.0,0.0,1.0,0.4594933004118502,9,1,correct rejection,0.4594933004118502,0.4594933004118502,,0
sub-035,active,pic-present,1,0.0,0.0,2.0,0.5632870001718402,9,1,hit,0.5632870001718402,0.5632870001718402,,0
sub-035,active,pic-absent,0,0.0,0.0,3.0,0.3846598002128303,9,1,correct rejection,0.3846598002128303,0.3846598002128303,,0
sub-035,inactive,pic-absent,0,0.0,1.0,0.0,0.5334994997829199,10,1,correct rejection,0.5334994997829199,0.5334994997829199,,0
sub-035,active,pic-present,1,0.0,1.0,1.0,0.3539052000269294,10,1,hit,0.3539052000269294,0.3539052000269294,,0
sub-035,inactive,pic-absent,0,0.0,1.0,2.0,0.4101634002290666,10,1,correct rejection,0.4101634002290666,0.4101634002290666,,0
sub-035,inactive,pic-present,0,0.0,1.0,3.0,0.5627893996424973,10,0,miss,0.5627893996424973,,0.5627893996424973,0
sub-035,active,pic-absent,0,0.0,2.0,0.0,0.3828301997855305,11,1,correct rejection,0.3828301997855305,0.3828301997855305,,0
sub-035,inactive,pic-present,1,0.0,2.0,1.0,0.438775600399822,11,1,hit,0.438775600399822,0.438775600399822,,0
sub-035,active,pic-absent,0,0.0,2.0,2.0,0.3077889000996947,11,1,correct rejection,0.3077889000996947,0.3077889000996947,,0
sub-035,inactive,pic-absent,0,0.0,2.0,3.0,0.6005279002711177,11,1,correct rejection,0.6005279002711177,0.6005279002711177,,0
sub-035,active,pic-present,1,0.0,3.0,0.0,0.3336280998773873,12,1,hit,0.3336280998773873,0.3336280998773873,,0
sub-035,active,pic-absent,0,0.0,3.0,1.0,0.6262819999828935,12,1,correct rejection,0.6262819999828935,0.6262819999828935,,0
sub-035,inactive,pic-present,1,0.0,3.0,2.0,0.6344884000718594,12,1,hit,0.6344884000718594,0.6344884000718594,,0
sub-035,active,pic-present,1,0.0,3.0,3.0,0.6427550995722413,12,1,hit,0.6427550995722413,0.6427550995722413,,0
sub-035,inactive,pic-absent,0,1.0,0.0,0.0,0.42765390034765,21,1,correct rejection,0.42765390034765,0.42765390034765,,0
sub-035,active,pic-absent,0,1.0,0.0,1.0,0.4835654003545642,21,1,correct rejection,0.4835654003545642,0.4835654003545642,,0
sub-035,inactive,pic-present,1,1.0,0.0,2.0,0.6360592003911734,21,1,hit,0.6360592003911734,0.6360592003911734,,0
sub-035,active,pic-absent,0,1.0,0.0,3.0,0.5050246003083885,21,1,correct rejection,0.5050246003083885,0.5050246003083885,,0
sub-035,inactive,pic-present,1,1.0,1.0,0.0,0.5796070001088083,22,1,hit,0.5796070001088083,0.5796070001088083,,0
sub-035,inactive,pic-present,1,1.0,1.0,1.0,0.588474600110203,22,1,hit,0.588474600110203,0.588474600110203,,0
sub-035,active,pic-absent,0,1.0,1.0,2.0,0.5052797999233007,22,1,correct rejection,0.5052797999233007,0.5052797999233007,,0
sub-035,inactive,pic-absent,0,1.0,1.0,3.0,0.3298689001239836,22,1,correct rejection,0.3298689001239836,0.3298689001239836,,0
sub-035,active,pic-present,1,1.0,2.0,0.0,0.3957394999451935,23,1,hit,0.3957394999451935,0.3957394999451935,,0
sub-035,inactive,pic-absent,0,1.0,2.0,1.0,0.3598654996603727,23,1,correct rejection,0.3598654996603727,0.3598654996603727,,0
sub-035,active,pic-present,1,1.0,2.0,2.0,0.3685802002437413,23,1,hit,0.3685802002437413,0.3685802002437413,,0
sub-035,inactive,pic-present,1,1.0,2.0,3.0,0.6123601999133825,23,1,hit,0.6123601999133825,0.6123601999133825,,0
sub-035,active,pic-absent,0,1.0,3.0,0.0,0.4998792000114918,24,1,correct rejection,0.4998792000114918,0.4998792000114918,,0
sub-035,active,pic-present,1,1.0,3.0,1.0,0.4125465000979602,24,1,hit,0.4125465000979602,0.4125465000979602,,0
sub-035,inactive,pic-absent,0,1.0,3.0,2.0,0.5691666998900473,24,1,correct rejection,0.5691666998900473,0.5691666998900473,,0
sub-035,active,pic-present,1,1.0,3.0,3.0,0.3899862999096513,24,1,hit,0.3899862999096513,0.3899862999096513,,0
sub-036,inactive,pic-absent,0,0.0,0.0,0.0,1.3662365996278822,9,1,correct rejection,1.3662365996278822,1.3662365996278822,,0
sub-036,active,pic-present,1,0.0,0.0,1.0,0.950571599882096,9,1,hit,0.950571599882096,0.950571599882096,,0
sub-036,inactive,pic-present,1,0.0,0.0,2.0,0.5837802002206445,9,1,hit,0.5837802002206445,0.5837802002206445,,0
sub-036,active,pic-absent,0,0.0,0.0,3.0,0.6401510001160204,9,1,correct rejection,0.6401510001160204,0.6401510001160204,,0
sub-036,active,pic-absent,0,0.0,1.0,0.0,0.839027900248766,10,1,correct rejection,0.839027900248766,0.839027900248766,,0
sub-036,inactive,pic-present,1,0.0,1.0,1.0,0.3789904001168906,10,1,hit,0.3789904001168906,0.3789904001168906,,0
sub-036,inactive,pic-absent,0,0.0,1.0,2.0,0.7164306002669036,10,1,correct rejection,0.7164306002669036,0.7164306002669036,,0
sub-036,active,pic-present,1,0.0,1.0,3.0,0.7721883002668619,10,1,hit,0.7721883002668619,0.7721883002668619,,0
sub-036,inactive,pic-present,0,0.0,2.0,0.0,0.9514997000806034,11,0,miss,0.9514997000806034,,0.9514997000806034,0
sub-036,active,pic-absent,0,0.0,2.0,1.0,1.947829300072044,11,1,correct rejection,1.947829300072044,1.947829300072044,,0
sub-036,active,pic-present,1,0.0,2.0,2.0,1.1081165000796318,11,1,hit,1.1081165000796318,1.1081165000796318,,0
sub-036,inactive,pic-absent,1,0.0,2.0,3.0,1.316706399898976,11,0,false alarm,1.316706399898976,,1.316706399898976,0
sub-036,active,pic-present,1,0.0,3.0,0.0,0.6241539996117353,12,1,hit,0.6241539996117353,0.6241539996117353,,0
sub-036,inactive,pic-absent,0,0.0,3.0,1.0,0.5889455997385085,12,1,correct rejection,0.5889455997385085,0.5889455997385085,,0
sub-036,active,pic-absent,0,0.0,3.0,2.0,0.3616543002426624,12,1,correct rejection,0.3616543002426624,0.3616543002426624,,0
sub-036,inactive,pic-present,1,0.0,3.0,3.0,0.3742014998570084,12,1,hit,0.3742014998570084,0.3742014998570084,,0
sub-036,inactive,pic-present,1,1.0,0.0,0.0,0.634782999753952,21,1,hit,0.634782999753952,0.634782999753952,,0
sub-036,active,pic-absent,0,1.0,0.0,1.0,0.4551854003220796,21,1,correct rejection,0.4551854003220796,0.4551854003220796,,0
sub-036,inactive,pic-present,1,1.0,0.0,2.0,0.3720976002514362,21,1,hit,0.3720976002514362,0.3720976002514362,,0
sub-036,inactive,pic-absent,0,1.0,0.0,3.0,0.4718018998391926,21,1,correct rejection,0.4718018998391926,0.4718018998391926,,0
sub-036,active,pic-present,1,1.0,1.0,0.0,0.2808896000497043,22,1,hit,0.2808896000497043,0.2808896000497043,,0
sub-036,inactive,pic-present,1,1.0,1.0,1.0,0.337313000112772,22,1,hit,0.337313000112772,0.337313000112772,,0
sub-036,inactive,pic-absent,0,1.0,1.0,2.0,0.438149900175631,22,1,correct rejection,0.438149900175631,0.438149900175631,,0
sub-036,active,pic-present,0,1.0,1.0,3.0,0.5899010002613068,22,0,miss,0.5899010002613068,,0.5899010002613068,0
sub-036,inactive,pic-absent,0,1.0,2.0,0.0,0.704276000149548,23,1,correct rejection,0.704276000149548,0.704276000149548,,0
sub-036,active,pic-present,1,1.0,2.0,1.0,0.9010474998503925,23,1,hit,0.9010474998503925,0.9010474998503925,,0
sub-036,active,pic-absent,0,1.0,2.0,2.0,0.4369728998281061,23,1,correct rejection,0.4369728998281061,0.4369728998281061,,0
sub-036,inactive,pic-present,1,1.0,2.0,3.0,0.3976988000795245,23,1,hit,0.3976988000795245,0.3976988000795245,,0
sub-036,active,pic-absent,0,1.0,3.0,0.0,0.5878204996697605,24,1,correct rejection,0.5878204996697605,0.5878204996697605,,0
sub-036,inactive,pic-absent,0,1.0,3.0,1.0,0.831568700261414,24,1,correct rejection,0.831568700261414,0.831568700261414,,0
sub-036,active,pic-present,1,1.0,3.0,2.0,0.5562477000057697,24,1,hit,0.5562477000057697,0.5562477000057697,,0
sub-036,active,pic-absent,0,1.0,3.0,3.0,0.5644837999716401,24,1,correct rejection,0.5644837999716401,0.5644837999716401,,0
sub-037,inactive,pic-present,1,0.0,0.0,0.0,0.9776913999812678,9,1,hit,0.9776913999812678,0.9776913999812678,,0
sub-037,inactive,pic-present,1,0.0,0.0,1.0,0.9860814999556168,9,1,hit,0.9860814999556168,0.9860814999556168,,0
sub-037,active,pic-absent,0,0.0,0.0,2.0,1.230825599981472,9,1,correct rejection,1.230825599981472,1.230825599981472,,0
sub-037,inactive,pic-present,1,0.0,0.0,3.0,0.911565799964592,9,1,hit,0.911565799964592,0.911565799964592,,0
sub-037,active,pic-present,0,0.0,1.0,0.0,0.960791299934499,10,0,miss,0.960791299934499,,0.960791299934499,0
sub-037,active,pic-absent,0,0.0,1.0,1.0,0.6413171000313014,10,1,correct rejection,0.6413171000313014,0.6413171000313014,,0
sub-037,inactive,pic-present,1,0.0,1.0,2.0,0.7457347000017762,10,1,hit,0.7457347000017762,0.7457347000017762,,0
sub-037,active,pic-present,1,0.0,1.0,3.0,0.753603299963288,10,1,hit,0.753603299963288,0.753603299963288,,0
sub-037,active,pic-absent,1,0.0,2.0,0.0,0.956763800000772,11,0,false alarm,0.956763800000772,,0.956763800000772,0
sub-037,inactive,pic-absent,1,0.0,2.0,1.0,0.8254881000611931,11,0,false alarm,0.8254881000611931,,0.8254881000611931,0
sub-037,active,pic-present,1,0.0,2.0,2.0,0.8341175999958068,11,1,hit,0.8341175999958068,0.8341175999958068,,0
sub-037,inactive,pic-absent,0,0.0,2.0,3.0,1.1307588999625295,11,1,correct rejection,1.1307588999625295,1.1307588999625295,,0
sub-037,inactive,pic-absent,0,0.0,3.0,0.0,0.6635619000298902,12,1,correct rejection,0.6635619000298902,0.6635619000298902,,0
sub-037,active,pic-present,0,0.0,3.0,1.0,1.7997038000030443,12,0,miss,1.7997038000030443,,1.7997038000030443,0
sub-037,inactive,pic-absent,1,0.0,3.0,2.0,0.7281526000006124,12,0,false alarm,0.7281526000006124,,0.7281526000006124,0
sub-037,active,pic-absent,0,0.0,3.0,3.0,0.9251733999699354,12,1,correct rejection,0.9251733999699354,0.9251733999699354,,0
sub-037,inactive,pic-absent,1,1.0,0.0,0.0,1.0991732000838963,21,0,false alarm,1.0991732000838963,,1.0991732000838963,0
sub-037,active,pic-present,1,1.0,0.0,1.0,0.7795872000278905,21,1,hit,0.7795872000278905,0.7795872000278905,,0
sub-037,inactive,pic-present,1,1.0,0.0,2.0,0.7889488999499008,21,1,hit,0.7889488999499008,0.7889488999499008,,0
sub-037,active,pic-absent,0,1.0,0.0,3.0,0.8933883000863716,21,1,correct rejection,0.8933883000863716,0.8933883000863716,,0
sub-037,active,pic-absent,0,1.0,1.0,0.0,0.949798500048928,22,1,correct rejection,0.949798500048928,0.949798500048928,,0
sub-037,inactive,pic-present,1,1.0,1.0,1.0,0.8664127999218181,22,1,hit,0.8664127999218181,0.8664127999218181,,0
sub-037,inactive,pic-absent,1,1.0,1.0,2.0,1.9588037999346848,22,0,false alarm,1.9588037999346848,,1.9588037999346848,0
sub-037,active,pic-present,0,1.0,1.0,3.0,1.1667764999438075,22,0,miss,1.1667764999438075,,1.1667764999438075,0
sub-037,inactive,pic-present,1,1.0,2.0,0.0,0.7232530999463052,23,1,hit,0.7232530999463052,0.7232530999463052,,0
sub-037,active,pic-absent,0,1.0,2.0,1.0,1.0153187999967486,23,1,correct rejection,1.0153187999967486,1.0153187999967486,,0
sub-037,active,pic-absent,0,1.0,2.0,2.0,1.4478723999345675,23,1,correct rejection,1.4478723999345675,1.4478723999345675,,0
sub-037,inactive,pic-present,0,1.0,2.0,3.0,0.7965272000292316,23,0,miss,0.7965272000292316,,0.7965272000292316,0
sub-037,active,pic-present,1,1.0,3.0,0.0,1.5376664000796154,24,1,hit,1.5376664000796154,1.5376664000796154,,0
sub-037,inactive,pic-absent,0,1.0,3.0,1.0,1.125874500023201,24,1,correct rejection,1.125874500023201,1.125874500023201,,0
sub-037,active,pic-present,0,1.0,3.0,2.0,0.9945080999750644,24,0,miss,0.9945080999750644,,0.9945080999750644,0
sub-037,inactive,pic-absent,0,1.0,3.0,3.0,0.9588407999835908,24,1,correct rejection,0.9588407999835908,0.9588407999835908,,0
sub-038,active,pic-absent,0,0.0,0.0,0.0,1.052911600098014,9,1,correct rejection,1.052911600098014,1.052911600098014,,0
sub-038,inactive,pic-absent,1,0.0,0.0,1.0,1.6772409999975937,9,0,false alarm,1.6772409999975937,,1.6772409999975937,0
sub-038,active,pic-present,0,0.0,0.0,2.0,1.3580467000138017,9,0,miss,1.3580467000138017,,1.3580467000138017,0
sub-038,active,pic-present,1,0.0,0.0,3.0,1.0381866999669,9,1,hit,1.0381866999669,1.0381866999669,,0
sub-038,inactive,pic-absent,0,0.0,1.0,0.0,0.5241889000171795,10,1,correct rejection,0.5241889000171795,0.5241889000171795,,0
sub-038,active,pic-absent,0,0.0,1.0,1.0,0.9095162999583408,10,1,correct rejection,0.9095162999583408,0.9095162999583408,,0
sub-038,inactive,pic-present,1,0.0,1.0,2.0,0.9659678000025452,10,1,hit,0.9659678000025452,0.9659678000025452,,0
sub-038,active,pic-absent,0,0.0,1.0,3.0,0.9779065999900922,10,1,correct rejection,0.9779065999900922,0.9779065999900922,,0
sub-038,inactive,pic-present,1,0.0,2.0,0.0,1.21215050003957,11,1,hit,1.21215050003957,1.21215050003957,,0
sub-038,active,pic-present,1,0.0,2.0,1.0,0.940038500004448,11,1,hit,0.940038500004448,0.940038500004448,,0
sub-038,active,pic-absent,0,0.0,2.0,2.0,0.9492932999273762,11,1,correct rejection,0.9492932999273762,0.9492932999273762,,0
sub-038,inactive,pic-absent,0,0.0,2.0,3.0,0.9574937999714166,11,1,correct rejection,0.9574937999714166,0.9574937999714166,,0
sub-038,active,pic-present,1,0.0,3.0,0.0,0.9887498000171036,12,1,hit,0.9887498000171036,0.9887498000171036,,0
sub-038,inactive,pic-present,0,0.0,3.0,1.0,1.041726000024937,12,0,miss,1.041726000024937,,1.041726000024937,0
sub-038,inactive,pic-absent,0,0.0,3.0,2.0,1.0535640000598503,12,1,correct rejection,1.0535640000598503,1.0535640000598503,,0
sub-038,inactive,pic-present,1,0.0,3.0,3.0,0.9226361999753864,12,1,hit,0.9226361999753864,0.9226361999753864,,0
sub-038,active,pic-present,1,1.0,0.0,0.0,0.8601959999650717,21,1,hit,0.8601959999650717,0.8601959999650717,,0
sub-038,inactive,pic-absent,1,1.0,0.0,1.0,0.8681631000945345,21,0,false alarm,0.8681631000945345,,0.8681631000945345,0
sub-038,inactive,pic-absent,0,1.0,0.0,2.0,0.9287685999879614,21,1,correct rejection,0.9287685999879614,0.9287685999879614,,0
sub-038,active,pic-present,0,1.0,0.0,3.0,1.2210750000085682,21,0,miss,1.2210750000085682,,1.2210750000085682,0
sub-038,inactive,pic-absent,0,1.0,1.0,0.0,0.9840303000528364,22,1,correct rejection,0.9840303000528364,0.9840303000528364,,0
sub-038,active,pic-absent,0,1.0,1.0,1.0,0.9007852000650018,22,1,correct rejection,0.9007852000650018,0.9007852000650018,,0
sub-038,inactive,pic-present,1,1.0,1.0,2.0,0.9613057000096888,22,1,hit,0.9613057000096888,0.9613057000096888,,0
sub-038,inactive,pic-absent,0,1.0,1.0,3.0,0.9197415000526236,22,1,correct rejection,0.9197415000526236,0.9197415000526236,,0
sub-038,active,pic-absent,1,1.0,2.0,0.0,0.7449124000268057,23,0,false alarm,0.7449124000268057,,0.7449124000268057,0
sub-038,inactive,pic-present,1,1.0,2.0,1.0,0.4248320000478998,23,1,hit,0.4248320000478998,0.4248320000478998,,0
sub-038,active,pic-present,0,1.0,2.0,2.0,0.4860728000057861,23,0,miss,0.4860728000057861,,0.4860728000057861,0
sub-038,active,pic-absent,0,1.0,2.0,3.0,1.1980914000887424,23,1,correct rejection,1.1980914000887424,1.1980914000887424,,0
sub-038,inactive,pic-present,0,1.0,3.0,0.0,1.1431891000829637,24,0,miss,1.1431891000829637,,1.1431891000829637,0
sub-038,active,pic-present,1,1.0,3.0,1.0,0.7803552000550553,24,1,hit,0.7803552000550553,0.7803552000550553,,0
sub-038,active,pic-absent,0,1.0,3.0,2.0,0.412452100077644,24,1,correct rejection,0.412452100077644,0.412452100077644,,0
sub-038,inactive,pic-present,0,1.0,3.0,3.0,0.6573663000017405,24,0,miss,0.6573663000017405,,0.6573663000017405,0
sub-040,active,pic-present,1,0.0,0.0,0.0,0.8839902000036091,9,1,hit,0.8839902000036091,0.8839902000036091,,0
sub-040,inactive,pic-absent,0,0.0,0.0,1.0,0.6603727999608964,9,1,correct rejection,0.6603727999608964,0.6603727999608964,,0
sub-040,active,pic-present,1,0.0,0.0,2.0,0.6208907999098301,9,1,hit,0.6208907999098301,0.6208907999098301,,0
sub-040,active,pic-absent,0,0.0,0.0,3.0,0.90930479997769,9,1,correct rejection,0.90930479997769,0.90930479997769,,0
sub-040,inactive,pic-absent,1,0.0,1.0,0.0,1.6113993001636118,10,0,false alarm,1.6113993001636118,,1.6113993001636118,0
sub-040,active,pic-present,1,0.0,1.0,1.0,1.9962208000943065,10,1,hit,1.9962208000943065,1.9962208000943065,,0
sub-040,active,pic-absent,0,0.0,1.0,2.0,0.5450664001982659,10,1,correct rejection,0.5450664001982659,0.5450664001982659,,0
sub-040,inactive,pic-present,1,0.0,1.0,3.0,0.5094368001446128,10,1,hit,0.5094368001446128,0.5094368001446128,,0
sub-040,inactive,pic-present,0,0.0,2.0,0.0,0.7206421999726444,11,0,miss,0.7206421999726444,,0.7206421999726444,0
sub-040,active,pic-absent,1,0.0,2.0,1.0,0.6851809001527727,11,0,false alarm,0.6851809001527727,,0.6851809001527727,0
sub-040,inactive,pic-present,1,0.0,2.0,2.0,0.5972029999829829,11,1,hit,0.5972029999829829,0.5972029999829829,,0
sub-040,inactive,pic-absent,0,0.0,2.0,3.0,1.1178117999807,11,1,correct rejection,1.1178117999807,1.1178117999807,,0
sub-040,active,pic-absent,1,0.0,3.0,0.0,0.7938127999659628,12,0,false alarm,0.7938127999659628,,0.7938127999659628,0
sub-040,inactive,pic-present,1,0.0,3.0,1.0,0.5668343000579625,12,1,hit,0.5668343000579625,0.5668343000579625,,0
sub-040,inactive,pic-absent,0,0.0,3.0,2.0,0.6192301998380572,12,1,correct rejection,0.6192301998380572,0.6192301998380572,,0
sub-040,active,pic-present,0,0.0,3.0,3.0,0.8630641000345349,12,0,miss,0.8630641000345349,,0.8630641000345349,0
sub-040,active,pic-absent,0,1.0,0.0,0.0,0.6350902998819947,21,1,correct rejection,0.6350902998819947,0.6350902998819947,,0
sub-040,inactive,pic-present,1,1.0,0.0,1.0,0.5075905001722276,21,1,hit,0.5075905001722276,0.5075905001722276,,0
sub-040,active,pic-present,1,1.0,0.0,2.0,0.4637051001191139,21,1,hit,0.4637051001191139,0.4637051001191139,,0
sub-040,active,pic-absent,0,1.0,0.0,3.0,0.612807699944824,21,1,correct rejection,0.612807699944824,0.612807699944824,,0
sub-040,inactive,pic-present,1,1.0,1.0,0.0,0.6760952000040561,22,1,hit,0.6760952000040561,0.6760952000040561,,0
sub-040,active,pic-absent,0,1.0,1.0,1.0,0.5888481999281794,22,1,correct rejection,0.5888481999281794,0.5888481999281794,,0
sub-040,inactive,pic-present,1,1.0,1.0,2.0,0.4606643998995423,22,1,hit,0.4606643998995423,0.4606643998995423,,0
sub-040,inactive,pic-absent,0,1.0,1.0,3.0,0.5134159000590444,22,1,correct rejection,0.5134159000590444,0.5134159000590444,,0
sub-040,active,pic-present,1,1.0,2.0,0.0,0.4850216000340879,23,1,hit,0.4850216000340879,0.4850216000340879,,0
sub-040,inactive,pic-absent,0,1.0,2.0,1.0,0.4453908998984843,23,1,correct rejection,0.4453908998984843,0.4453908998984843,,0
sub-040,inactive,pic-absent,1,1.0,2.0,2.0,0.4062087000347674,23,0,false alarm,0.4062087000347674,,0.4062087000347674,0
sub-040,active,pic-present,1,1.0,2.0,3.0,0.4626995001453906,23,1,hit,0.4626995001453906,0.4626995001453906,,0
sub-040,inactive,pic-absent,0,1.0,3.0,0.0,0.6115551001857966,24,1,correct rejection,0.6115551001857966,0.6115551001857966,,0
sub-040,active,pic-present,1,1.0,3.0,1.0,0.6635160001460463,24,1,hit,0.6635160001460463,0.6635160001460463,,0
sub-040,active,pic-absent,0,1.0,3.0,2.0,1.848220100160688,24,1,correct rejection,1.848220100160688,1.848220100160688,,0
sub-040,inactive,pic-present,1,1.0,3.0,3.0,0.4932096998672932,24,1,hit,0.4932096998672932,0.4932096998672932,,0
sub-041,inactive,pic-absent,0,0.0,0.0,0.0,0.767512199934572,9,1,correct rejection,0.767512199934572,0.767512199934572,,0
sub-041,inactive,pic-present,1,0.0,0.0,1.0,0.7805893002077937,9,1,hit,0.7805893002077937,0.7805893002077937,,0
sub-041,active,pic-absent,0,0.0,0.0,2.0,0.8845114000141621,9,1,correct rejection,0.8845114000141621,0.8845114000141621,,0
sub-041,active,pic-present,1,0.0,0.0,3.0,0.8009774996899068,9,1,hit,0.8009774996899068,0.8009774996899068,,0
sub-041,inactive,pic-present,1,0.0,1.0,0.0,0.9284957996569574,10,1,hit,0.9284957996569574,0.9284957996569574,,0
sub-041,active,pic-absent,0,0.0,1.0,1.0,0.4690028997138142,10,1,correct rejection,0.4690028997138142,0.4690028997138142,,0
sub-041,inactive,pic-present,1,0.0,1.0,2.0,0.6701778001151979,10,1,hit,0.6701778001151979,0.6701778001151979,,0
sub-041,active,pic-absent,0,0.0,1.0,3.0,0.4421115997247398,10,1,correct rejection,0.4421115997247398,0.4421115997247398,,0
sub-041,active,pic-present,1,0.0,2.0,0.0,0.5065009999088943,11,1,hit,0.5065009999088943,0.5065009999088943,,0
sub-041,inactive,pic-absent,0,0.0,2.0,1.0,0.4229877996258437,11,1,correct rejection,0.4229877996258437,0.4229877996258437,,0
sub-041,active,pic-present,1,0.0,2.0,2.0,0.6230332003906369,11,1,hit,0.6230332003906369,0.6230332003906369,,0
sub-041,inactive,pic-present,1,0.0,2.0,3.0,0.7754347999580204,11,1,hit,0.7754347999580204,0.7754347999580204,,0
sub-041,active,pic-absent,0,0.0,3.0,0.0,0.5345774004235864,12,1,correct rejection,0.5345774004235864,0.5345774004235864,,0
sub-041,active,pic-present,1,0.0,3.0,1.0,0.4555798000656068,12,1,hit,0.4555798000656068,0.4555798000656068,,0
sub-041,inactive,pic-absent,0,0.0,3.0,2.0,0.4635874000377953,12,1,correct rejection,0.4635874000377953,0.4635874000377953,,0
sub-041,inactive,pic-absent,0,0.0,3.0,3.0,0.424454899970442,12,1,correct rejection,0.424454899970442,0.424454899970442,,0
sub-041,active,pic-present,1,1.0,0.0,0.0,0.9372275997884572,21,1,hit,0.9372275997884572,0.9372275997884572,,0
sub-041,active,pic-present,1,1.0,0.0,1.0,0.6657563000917435,21,1,hit,0.6657563000917435,0.6657563000917435,,0
sub-041,inactive,pic-absent,0,1.0,0.0,2.0,0.678090900182724,21,1,correct rejection,0.678090900182724,0.678090900182724,,0
sub-041,active,pic-present,1,1.0,0.0,3.0,0.590917999856174,21,1,hit,0.590917999856174,0.590917999856174,,0
sub-041,inactive,pic-absent,0,1.0,1.0,0.0,0.627380299847573,22,1,correct rejection,0.627380299847573,0.627380299847573,,0
sub-041,active,pic-absent,0,1.0,1.0,1.0,0.4036832000128925,22,1,correct rejection,0.4036832000128925,0.4036832000128925,,0
sub-041,active,pic-present,1,1.0,1.0,2.0,0.5044925999827683,22,1,hit,0.5044925999827683,0.5044925999827683,,0
sub-041,inactive,pic-present,1,1.0,1.0,3.0,0.4204894001595676,22,1,hit,0.4204894001595676,0.4204894001595676,,0
sub-041,active,pic-absent,0,1.0,2.0,0.0,0.8481898000463843,23,1,correct rejection,0.8481898000463843,0.8481898000463843,,0
sub-041,inactive,pic-present,0,1.0,2.0,1.0,1.0444794003851712,23,0,miss,1.0444794003851712,,1.0444794003851712,0
sub-041,inactive,pic-present,1,1.0,2.0,2.0,0.3488986003212631,23,1,hit,0.3488986003212631,0.3488986003212631,,0
sub-041,active,pic-absent,0,1.0,2.0,3.0,1.0176907000131905,23,1,correct rejection,1.0176907000131905,1.0176907000131905,,0
sub-041,inactive,pic-present,1,1.0,3.0,0.0,0.5460823001340032,24,1,hit,0.5460823001340032,0.5460823001340032,,0
sub-041,inactive,pic-absent,1,1.0,3.0,1.0,0.4627863001078367,24,0,false alarm,0.4627863001078367,,0.4627863001078367,0
sub-041,active,pic-absent,1,1.0,3.0,2.0,0.4706478998996317,24,0,false alarm,0.4706478998996317,,0.4706478998996317,0
sub-041,inactive,pic-absent,0,1.0,3.0,3.0,0.5757411997765303,24,1,correct rejection,0.5757411997765303,0.5757411997765303,,0
sub-042,inactive,pic-present,1,0.0,0.0,0.0,0.5548403998836875,9,1,hit,0.5548403998836875,0.5548403998836875,,0
sub-042,active,pic-absent,1,0.0,0.0,1.0,0.6594133996404707,9,0,false alarm,0.6594133996404707,,0.6594133996404707,0
sub-042,inactive,pic-absent,0,0.0,0.0,2.0,0.951664499938488,9,1,correct rejection,0.951664499938488,0.951664499938488,,0
sub-042,inactive,pic-present,1,0.0,0.0,3.0,0.5804787999950349,9,1,hit,0.5804787999950349,0.5804787999950349,,0
sub-042,active,pic-present,1,0.0,1.0,0.0,0.4572336003184318,10,1,hit,0.4572336003184318,0.4572336003184318,,0
sub-042,inactive,pic-absent,1,0.0,1.0,1.0,0.6055049998685718,10,0,false alarm,0.6055049998685718,,0.6055049998685718,0
sub-042,active,pic-present,0,0.0,1.0,2.0,0.5220912997610867,10,0,miss,0.5220912997610867,,0.5220912997610867,0
sub-042,active,pic-present,0,0.0,1.0,3.0,1.2350396001711488,10,0,miss,1.2350396001711488,,1.2350396001711488,0
sub-042,inactive,pic-absent,1,0.0,2.0,0.0,0.382865899708122,11,0,false alarm,0.382865899708122,,0.382865899708122,0
sub-042,active,pic-present,0,0.0,2.0,1.0,0.4388904003426432,11,0,miss,0.4388904003426432,,0.4388904003426432,0
sub-042,inactive,pic-present,1,0.0,2.0,2.0,0.3988080001436174,11,1,hit,0.3988080001436174,0.3988080001436174,,0
sub-042,inactive,pic-absent,1,0.0,2.0,3.0,0.4557252000086009,11,0,false alarm,0.4557252000086009,,0.4557252000086009,0
sub-042,active,pic-absent,0,0.0,3.0,0.0,0.6526926001533866,12,1,correct rejection,0.6526926001533866,0.6526926001533866,,0
sub-042,inactive,pic-present,1,0.0,3.0,1.0,0.5180732998996973,12,1,hit,0.5180732998996973,0.5180732998996973,,0
sub-042,active,pic-absent,1,0.0,3.0,2.0,0.6224016998894513,12,0,false alarm,0.6224016998894513,,0.6224016998894513,0
sub-042,active,pic-absent,0,0.0,3.0,3.0,0.4911237997002899,12,1,correct rejection,0.4911237997002899,0.4911237997002899,,0
sub-042,inactive,pic-present,1,1.0,0.0,0.0,0.4953850000165403,21,1,hit,0.4953850000165403,0.4953850000165403,,0
sub-042,active,pic-absent,0,1.0,0.0,1.0,2.715571799781173,21,1,correct rejection,2.715571799781173,2.715571799781173,,0
sub-042,active,pic-absent,1,1.0,0.0,2.0,0.4685381003655493,21,0,false alarm,0.4685381003655493,,0.4685381003655493,0
sub-042,inactive,pic-present,1,1.0,0.0,3.0,0.384936099871993,21,1,hit,0.384936099871993,0.384936099871993,,0
sub-042,active,pic-absent,0,1.0,1.0,0.0,0.7158722002059221,22,1,correct rejection,0.7158722002059221,0.7158722002059221,,0
sub-042,inactive,pic-absent,1,1.0,1.0,1.0,1.4315933999605477,22,0,false alarm,1.4315933999605477,,1.4315933999605477,0
sub-042,active,pic-present,1,1.0,1.0,2.0,1.208785300143063,22,1,hit,1.208785300143063,1.208785300143063,,0
sub-042,inactive,pic-absent,1,1.0,1.0,3.0,1.9689238001592455,22,0,false alarm,1.9689238001592455,,1.9689238001592455,0
sub-042,active,pic-present,0,1.0,2.0,0.0,0.6554489000700414,23,0,miss,0.6554489000700414,,0.6554489000700414,0
sub-042,inactive,pic-present,1,1.0,2.0,1.0,0.7112555000931025,23,1,hit,0.7112555000931025,0.7112555000931025,,0
sub-042,inactive,pic-absent,1,1.0,2.0,2.0,1.2835927996784449,23,0,false alarm,1.2835927996784449,,1.2835927996784449,0
sub-042,active,pic-present,1,1.0,2.0,3.0,0.544837299734354,23,1,hit,0.544837299734354,0.544837299734354,,0
sub-042,inactive,pic-absent,0,1.0,3.0,0.0,2.36257979972288,24,1,correct rejection,2.36257979972288,2.36257979972288,,0
sub-042,active,pic-present,0,1.0,3.0,1.0,0.4468878996558487,24,0,miss,0.4468878996558487,,0.4468878996558487,0
sub-042,inactive,pic-present,1,1.0,3.0,2.0,0.4549401002004742,24,1,hit,0.4549401002004742,0.4549401002004742,,0
sub-042,active,pic-absent,0,1.0,3.0,3.0,0.6514816000126302,24,1,correct rejection,0.6514816000126302,0.6514816000126302,,0
sub-043,inactive,pic-present,1,0.0,0.0,0.0,0.4343138998374343,9,1,hit,0.4343138998374343,0.4343138998374343,,0
sub-043,active,pic-absent,0,0.0,0.0,1.0,0.963337699882686,9,1,correct rejection,0.963337699882686,0.963337699882686,,0
sub-043,inactive,pic-present,0,0.0,0.0,2.0,1.2515056999400258,9,0,miss,1.2515056999400258,,1.2515056999400258,0
sub-043,inactive,pic-absent,0,0.0,0.0,3.0,1.2116319998167455,9,1,correct rejection,1.2116319998167455,1.2116319998167455,,0
sub-043,active,pic-absent,1,0.0,1.0,0.0,0.7560040997341275,10,0,false alarm,0.7560040997341275,,0.7560040997341275,0
sub-043,inactive,pic-present,1,0.0,1.0,1.0,0.532316000200808,10,1,hit,0.532316000200808,0.532316000200808,,0
sub-043,active,pic-absent,0,0.0,1.0,2.0,0.4926161002367735,10,1,correct rejection,0.4926161002367735,0.4926161002367735,,0
sub-043,inactive,pic-present,0,0.0,1.0,3.0,1.064963299781084,10,0,miss,1.064963299781084,,1.064963299781084,0
sub-043,active,pic-present,1,0.0,2.0,0.0,0.5933570000343025,11,1,hit,0.5933570000343025,0.5933570000343025,,0
sub-043,inactive,pic-absent,0,0.0,2.0,1.0,0.7455879999324679,11,1,correct rejection,0.7455879999324679,0.7455879999324679,,0
sub-043,inactive,pic-absent,0,0.0,2.0,2.0,0.7539197998121381,11,1,correct rejection,0.7539197998121381,0.7539197998121381,,0
sub-043,active,pic-present,0,0.0,2.0,3.0,0.6185391000472009,11,0,miss,0.6185391000472009,,0.6185391000472009,0
sub-043,inactive,pic-absent,0,0.0,3.0,0.0,0.9012432000599802,12,1,correct rejection,0.9012432000599802,0.9012432000599802,,0
sub-043,active,pic-present,1,0.0,3.0,1.0,0.3496269998140633,12,1,hit,0.3496269998140633,0.3496269998140633,,0
sub-043,active,pic-present,1,0.0,3.0,2.0,0.3575173001736402,12,1,hit,0.3575173001736402,0.3575173001736402,,0
sub-043,active,pic-absent,0,0.0,3.0,3.0,0.4581122999079525,12,1,correct rejection,0.4581122999079525,0.4581122999079525,,0
sub-043,inactive,pic-absent,0,1.0,0.0,0.0,0.6036505000665784,21,1,correct rejection,0.6036505000665784,0.6036505000665784,,0
sub-043,active,pic-present,1,1.0,0.0,1.0,0.5204238002188504,21,1,hit,0.5204238002188504,0.5204238002188504,,0
sub-043,inactive,pic-absent,0,1.0,0.0,2.0,0.5773197999224067,21,1,correct rejection,0.5773197999224067,0.5773197999224067,,0
sub-043,active,pic-present,0,1.0,0.0,3.0,0.6296586999669671,21,0,miss,0.6296586999669671,,0.6296586999669671,0
sub-043,inactive,pic-present,0,1.0,1.0,0.0,1.045105299912393,22,0,miss,1.045105299912393,,1.045105299912393,0
sub-043,active,pic-absent,0,1.0,1.0,1.0,0.3935096999630332,22,1,correct rejection,0.3935096999630332,0.3935096999630332,,0
sub-043,inactive,pic-present,1,1.0,1.0,2.0,0.4020748999901116,22,1,hit,0.4020748999901116,0.4020748999901116,,0
sub-043,active,pic-absent,0,1.0,1.0,3.0,0.3627415001392364,22,1,correct rejection,0.3627415001392364,0.3627415001392364,,0
sub-043,active,pic-absent,0,1.0,2.0,0.0,1.2084977002814412,23,1,correct rejection,1.2084977002814412,1.2084977002814412,,0
sub-043,inactive,pic-present,0,1.0,2.0,1.0,0.4218033999204635,23,0,miss,0.4218033999204635,,0.4218033999204635,0
sub-043,active,pic-absent,0,1.0,2.0,2.0,0.3378381999209523,23,1,correct rejection,0.3378381999209523,0.3378381999209523,,0
sub-043,inactive,pic-absent,1,1.0,2.0,3.0,0.3468315000645816,23,0,false alarm,0.3468315000645816,,0.3468315000645816,0
sub-043,active,pic-present,1,1.0,3.0,0.0,0.3628384000621736,24,1,hit,0.3628384000621736,0.3628384000621736,,0
sub-043,inactive,pic-absent,1,1.0,3.0,1.0,0.3264959002844989,24,0,false alarm,0.3264959002844989,,0.3264959002844989,0
sub-043,active,pic-present,0,1.0,3.0,2.0,0.5229754000902176,24,0,miss,0.5229754000902176,,0.5229754000902176,0
sub-043,inactive,pic-present,0,1.0,3.0,3.0,0.3916424997150898,24,0,miss,0.3916424997150898,,0.3916424997150898,0
sub-044,active,pic-present,1,0.0,0.0,0.0,1.4117530002258718,9,1,hit,1.4117530002258718,1.4117530002258718,,0
sub-044,inactive,pic-absent,0,0.0,0.0,1.0,0.5765466000884771,9,1,correct rejection,0.5765466000884771,0.5765466000884771,,0
sub-044,active,pic-present,0,0.0,0.0,2.0,0.3482591998763382,9,0,miss,0.3482591998763382,,0.3482591998763382,0
sub-044,active,pic-present,1,0.0,0.0,3.0,0.3571859998628497,9,1,hit,0.3571859998628497,0.3571859998628497,,0
sub-044,inactive,pic-absent,0,0.0,1.0,0.0,0.3653593999333679,10,1,correct rejection,0.3653593999333679,0.3653593999333679,,0
sub-044,active,pic-present,0,0.0,1.0,1.0,0.4225765001028776,10,0,miss,0.4225765001028776,,0.4225765001028776,0
sub-044,active,pic-absent,0,0.0,1.0,2.0,0.3384916000068187,10,1,correct rejection,0.3384916000068187,0.3384916000068187,,0
sub-044,inactive,pic-absent,0,0.0,1.0,3.0,0.3948440998792648,10,1,correct rejection,0.3948440998792648,0.3948440998792648,,0
sub-044,inactive,pic-present,1,0.0,2.0,0.0,0.358795200008899,11,1,hit,0.358795200008899,0.358795200008899,,0
sub-044,active,pic-absent,0,0.0,2.0,1.0,0.4160103001631796,11,1,correct rejection,0.4160103001631796,0.4160103001631796,,0
sub-044,inactive,pic-present,1,0.0,2.0,2.0,0.3317908998578787,11,1,hit,0.3317908998578787,0.3317908998578787,,0
sub-044,inactive,pic-present,1,0.0,2.0,3.0,0.4803247000090778,11,1,hit,0.4803247000090778,0.4803247000090778,,0
sub-044,active,pic-absent,0,0.0,3.0,0.0,0.3604187001474201,12,1,correct rejection,0.3604187001474201,0.3604187001474201,,0
sub-044,inactive,pic-present,0,0.0,3.0,1.0,0.3681100001558661,12,0,miss,0.3681100001558661,,0.3681100001558661,0
sub-044,inactive,pic-absent,1,0.0,3.0,2.0,0.3285751999355852,12,0,false alarm,0.3285751999355852,,0.3285751999355852,0
sub-044,active,pic-absent,0,0.0,3.0,3.0,0.4338390999473631,12,1,correct rejection,0.4338390999473631,0.4338390999473631,,0
sub-044,inactive,pic-present,1,1.0,0.0,0.0,0.4252537996508181,21,1,hit,0.4252537996508181,0.4252537996508181,,0
sub-044,inactive,pic-absent,0,1.0,0.0,1.0,0.3863681000657379,21,1,correct rejection,0.3863681000657379,0.3863681000657379,,0
sub-044,active,pic-absent,0,1.0,0.0,2.0,0.3508846000768244,21,1,correct rejection,0.3508846000768244,0.3508846000768244,,0
sub-044,inactive,pic-present,0,1.0,0.0,3.0,0.3632938000373542,21,0,miss,0.3632938000373542,,0.3632938000373542,0
sub-044,active,pic-absent,1,1.0,1.0,1.0,0.2553364001214504,22,0,false alarm,0.2553364001214504,,0.2553364001214504,0
sub-044,inactive,pic-present,0,1.0,1.0,2.0,0.3116413000971079,22,0,miss,0.3116413000971079,,0.3116413000971079,0
sub-044,active,pic-absent,0,1.0,1.0,3.0,0.8888020003214478,22,1,correct rejection,0.8888020003214478,0.8888020003214478,,0
sub-044,active,pic-absent,0,1.0,2.0,0.0,1.0160342999733984,23,1,correct rejection,1.0160342999733984,1.0160342999733984,,0
sub-044,inactive,pic-present,1,1.0,2.0,1.0,0.5571270999498665,23,1,hit,0.5571270999498665,0.5571270999498665,,0
sub-044,inactive,pic-absent,0,1.0,2.0,2.0,0.3335037999786436,23,1,correct rejection,0.3335037999786436,0.3335037999786436,,0
sub-044,active,pic-present,1,1.0,2.0,3.0,0.3897173996083438,23,1,hit,0.3897173996083438,0.3897173996083438,,0
sub-044,inactive,pic-absent,0,1.0,3.0,0.0,0.322579899802804,24,1,correct rejection,0.322579899802804,0.322579899802804,,0
sub-044,active,pic-present,1,1.0,3.0,1.0,0.3320074002258479,24,1,hit,0.3320074002258479,0.3320074002258479,,0
sub-044,active,pic-present,1,1.0,3.0,2.0,0.3403566996566951,24,1,hit,0.3403566996566951,0.3403566996566951,,0
sub-044,inactive,pic-absent,0,1.0,3.0,3.0,0.3961888998746872,24,1,correct rejection,0.3961888998746872,0.3961888998746872,,0
sub-045,active,pic-absent,0,0.0,0.0,0.0,0.8170310000000427,9,1,correct rejection,0.8170310000000427,0.8170310000000427,,0
sub-045,inactive,pic-present,1,0.0,0.0,1.0,0.5453449999999975,9,1,hit,0.5453449999999975,0.5453449999999975,,0
sub-045,active,pic-absent,0,0.0,0.0,2.0,0.8820175999999265,9,1,correct rejection,0.8820175999999265,0.8820175999999265,,0
sub-045,active,pic-absent,0,0.0,0.0,3.0,0.514662799999769,9,1,correct rejection,0.514662799999769,0.514662799999769,,0
sub-045,inactive,pic-present,0,0.0,1.0,0.0,0.4977460999998584,10,0,miss,0.4977460999998584,,0.4977460999998584,0
sub-045,inactive,pic-absent,0,0.0,1.0,1.0,0.409164900000178,10,1,correct rejection,0.409164900000178,0.409164900000178,,0
sub-045,active,pic-present,1,0.0,1.0,2.0,0.4625227000001359,10,1,hit,0.4625227000001359,0.4625227000001359,,0
sub-045,active,pic-present,0,0.0,1.0,3.0,0.4226124000001618,10,0,miss,0.4226124000001618,,0.4226124000001618,0
sub-045,inactive,pic-absent,0,0.0,2.0,0.0,0.4961385999999947,11,1,correct rejection,0.4961385999999947,0.4961385999999947,,0
sub-045,active,pic-present,1,0.0,2.0,1.0,0.4449322999998912,11,1,hit,0.4449322999998912,0.4449322999998912,,0
sub-045,inactive,pic-absent,0,0.0,2.0,2.0,0.3565714999999727,11,1,correct rejection,0.3565714999999727,0.3565714999999727,,0
sub-045,inactive,pic-absent,0,0.0,2.0,3.0,0.5970290000000205,11,1,correct rejection,0.5970290000000205,0.5970290000000205,,0
sub-045,active,pic-present,0,0.0,3.0,0.0,0.4720125999997435,12,0,miss,0.4720125999997435,,0.4720125999997435,0
sub-045,active,pic-absent,0,0.0,3.0,1.0,0.4325755999998364,12,1,correct rejection,0.4325755999998364,0.4325755999998364,,0
sub-045,inactive,pic-present,1,0.0,3.0,2.0,0.441271499999857,12,1,hit,0.441271499999857,0.441271499999857,,0
sub-045,inactive,pic-present,1,0.0,3.0,3.0,0.4971850999995695,12,1,hit,0.4971850999995695,0.4971850999995695,,0
sub-045,inactive,pic-absent,0,1.0,0.0,0.0,0.7016860000003362,21,1,correct rejection,0.7016860000003362,0.7016860000003362,,0
sub-045,active,pic-present,1,1.0,0.0,1.0,0.9937384000004386,21,1,hit,0.9937384000004386,0.9937384000004386,,0
sub-045,inactive,pic-present,1,1.0,0.0,2.0,0.7222342000004573,21,1,hit,0.7222342000004573,0.7222342000004573,,0
sub-045,inactive,pic-absent,0,1.0,0.0,3.0,0.5955173000002105,21,1,correct rejection,0.5955173000002105,0.5955173000002105,,0
sub-045,active,pic-present,1,1.0,1.0,0.0,0.4788844999993671,22,1,hit,0.4788844999993671,0.4788844999993671,,0
sub-045,inactive,pic-absent,0,1.0,1.0,1.0,1.3318209999997634,22,1,correct rejection,1.3318209999997634,1.3318209999997634,,0
sub-045,active,pic-present,0,1.0,1.0,2.0,0.4960943999994924,22,0,miss,0.4960943999994924,,0.4960943999994924,0
sub-045,inactive,pic-present,1,1.0,1.0,3.0,0.5964426000000458,22,1,hit,0.5964426000000458,0.5964426000000458,,0
sub-045,active,pic-absent,0,1.0,2.0,0.0,0.6763158999992811,23,1,correct rejection,0.6763158999992811,0.6763158999992811,,0
sub-045,inactive,pic-present,1,1.0,2.0,1.0,0.4495266000003539,23,1,hit,0.4495266000003539,0.4495266000003539,,0
sub-045,active,pic-absent,0,1.0,2.0,2.0,0.5053619000000253,23,1,correct rejection,0.5053619000000253,0.5053619000000253,,0
sub-045,active,pic-absent,1,1.0,2.0,3.0,0.514180000000124,23,0,false alarm,0.514180000000124,,0.514180000000124,0
sub-045,inactive,pic-present,1,1.0,3.0,0.0,0.7072303000004467,24,1,hit,0.7072303000004467,0.7072303000004467,,0
sub-045,active,pic-absent,0,1.0,3.0,1.0,0.4790818000001309,24,1,correct rejection,0.4790818000001309,0.4790818000001309,,0
sub-045,inactive,pic-absent,0,1.0,3.0,2.0,0.4875986000006378,24,1,correct rejection,0.4875986000006378,0.4875986000006378,,0
