trials.thisRepN,trials.thisTrialN,trials.thisN,trials.thisIndex,loop_test.thisRepN,loop_test.thisTrialN,loop_test.thisN,loop_test.thisIndex,loop_eval_discri.thisRepN,loop_eval_discri.thisTrialN,loop_eval_discri.thisN,loop_eval_discri.thisIndex,loop_eval.thisRepN,loop_eval.thisTrialN,loop_eval.thisN,loop_eval.thisIndex,loop_discri.thisRepN,loop_discri.thisTrialN,loop_discri.thisN,loop_discri.thisIndex,thisRow.t,notes,Set_up.started,Set_up.stopped,electrode_check.started,electrode_check.stopped,instructions_eval.started,instructions_eval.stopped,pause_5_test.started,pause_5_test.stopped,Phase_Test.started,thermode_locali.started,Phase_Test.stopped,loca_thermode,condition,temp_trial_sent,eval_douleur.started,eval_douleur.stopped,ratingScale.response,ratingScale.rt,thermode_locali.stopped,Fin_test.started,text.started,Fin_test.stopped,pause_5_EVA.started,pause_5_EVA.stopped,tâche_EVA.started,thermode_locali_EVA.started,thermode_locali_EVA.stopped,tâche_EVA.stopped,instructions_discrim.started,instructions_discrim.stopped,pause_5_pic.started,pause_5_pic.stopped,tâche_PIC.started,thermode_locali_pic.started,percu_or.started,responser.started,thermode_locali_pic.stopped,percu_or.stopped,responser.stopped,tâche_PIC.stopped,dur_plateau1,dur_plateau2,dur_plateau1_sent,dur_plateau2_sent,start_plateau_2_resp,dur_pic,dur_rise,pic_presence,pic_response,discrimin_resp.keys,discrimin_resp.rt,discrimin_resp.duration,break_entre_bloc.started,break_entre_bloc.stopped,merci.started,merci.stopped,participant,temp_flat,temp_active,temp_pic_set,com_thermode,date,expName,psychopyVersion,frameRate,expStart,
0,0,0,0,0,0,0,0,,,,,,,,,,,,,98.66635959999985,,0.015622800001438009,87.64997740000035,87.65033089999997,92.04991620000146,92.04992400000265,98.64999090000128,98.65028499999971,103.64997109999968,103.64997770000264,103.66648120000173,115.65008840000155,0,active,42.4,115.65034890000243,117.80157709999912,15.000000000000004,2.128,,,,,,,,,,,,,,,,,,,,,,,,,,,,,,,,,,,,,,,sub-051,41.0,42.4,41.8,COM7,2025-03-05_14h46.49.441,2024_RDpaindiscrimination_maintask,2023.2.3,59.99926800903173,2025-03-05 14h47.19.972399 -0500,
0,0,0,0,1,0,1,0,,,,,,,,,,,,,117.81670619999932,,,,,,,,117.80246669999906,122.80018900000141,122.80019530000209,122.81672140000228,134.8005445000017,1,active,42.4,134.80069210000147,137.80280330000096,23.000000000000203,2.982,134.83348810000098,,,,,,,,,,,,,,,,,,,,,,,,,,,,,,,,,,,,,,sub-051,41.0,42.4,41.8,COM7,2025-03-05_14h46.49.441,2024_RDpaindiscrimination_maintask,2023.2.3,59.99926800903173,2025-03-05 14h47.19.972399 -0500,
0,0,0,0,2,0,2,0,,,,,,,,,,,,,137.81683540000085,,,,,,,,137.8035732999997,142.80042580000008,142.80043260000093,142.8168652000022,154.80079090000072,2,inactive,41.0,154.80096930000218,156.38447090000045,46.000000000000085,1.564,154.83365849999973,,,,,,,,,,,,,,,,,,,,,,,,,,,,,,,,,,,,,,sub-051,41.0,42.4,41.8,COM7,2025-03-05_14h46.49.441,2024_RDpaindiscrimination_maintask,2023.2.3,59.99926800903173,2025-03-05 14h47.19.972399 -0500,
0,0,0,0,3,0,3,0,,,,,,,,,,,,,156.4002815999993,,,,,,,,156.38470900000175,161.38388280000072,161.3838891000014,161.40038540000023,173.38427819999924,3,inactive,41.0,173.38442620000205,176.55235950000133,51.99999999999989,3.149,173.41712890000053,,,,,,,,,,,,,,,,,,,,,,,,,,,,,,,,,,,,,,sub-051,41.0,42.4,41.8,COM7,2025-03-05_14h46.49.441,2024_RDpaindiscrimination_maintask,2023.2.3,59.99926800903173,2025-03-05 14h47.19.972399 -0500,
0,0,0,0,4,0,4,0,,,,,,,,,,,,,176.56728289999955,,,,,,,,176.55311740000252,181.55080180000004,181.55080920000182,181.56725870000082,193.55119150000246,0,active,42.4,193.55134270000053,196.05216780000046,53.99999999999996,2.482,193.5840042000018,,,,,,,,,,,,,,,,,,,,,,,,,,,,,,,,,,,,,,sub-051,41.0,42.4,41.8,COM7,2025-03-05_14h46.49.441,2024_RDpaindiscrimination_maintask,2023.2.3,59.99926800903173,2025-03-05 14h47.19.972399 -0500,
0,0,0,0,5,0,5,0,,,,,,,,,,,,,196.06740039999931,,,,,,,,196.05302780000056,201.05101730000024,201.05102389999956,201.06748349999907,213.0513557000013,1,inactive,41.0,213.05150480000157,215.7365482999994,41.49999999999999,2.665,213.08425669999997,,,,,,,,,,,,,,,,,,,,,,,,,,,,,,,,,,,,,,sub-051,41.0,42.4,41.8,COM7,2025-03-05_14h46.49.441,2024_RDpaindiscrimination_maintask,2023.2.3,59.99926800903173,2025-03-05 14h47.19.972399 -0500,
0,0,0,0,6,0,6,0,,,,,,,,,,,,,215.75095320000037,,,,,,,,215.7374028000013,220.7345260000002,220.7345322000001,220.75100799999927,232.734960400001,2,active,42.4,232.73510340000212,236.7868156000004,64.99999999999991,4.033,232.76781340000161,,,,,,,,,,,,,,,,,,,,,,,,,,,,,,,,,,,,,,sub-051,41.0,42.4,41.8,COM7,2025-03-05_14h46.49.441,2024_RDpaindiscrimination_maintask,2023.2.3,59.99926800903173,2025-03-05 14h47.19.972399 -0500,
0,0,0,0,7,0,7,0,,,,,,,,,,,,,236.8011664000005,,,,,,,,236.78765900000144,241.78473080000185,241.78473700000177,241.80123599999934,253.78519750000123,3,inactive,41.0,253.78534430000218,256.4202022000027,26.500000000000085,2.615,253.81801020000057,,,,,,,,,,,,,,,,,,,,,,,,,,,,,,,,,,,,,,sub-051,41.0,42.4,41.8,COM7,2025-03-05_14h46.49.441,2024_RDpaindiscrimination_maintask,2023.2.3,59.99926800903173,2025-03-05 14h47.19.972399 -0500,
0,0,0,0,8,0,8,0,,,,,,,,,,,,,256.43461430000025,,,,,,,,256.42102520000117,261.4182731000001,261.4182796000023,261.4347712000017,273.4186789000014,0,inactive,41.0,273.41882389999955,277.1534971000001,13.000000000000075,3.716,273.4515038999998,,,,,,,,,,,,,,,,,,,,,,,,,,,,,,,,,,,,,,sub-051,41.0,42.4,41.8,COM7,2025-03-05_14h46.49.441,2024_RDpaindiscrimination_maintask,2023.2.3,59.99926800903173,2025-03-05 14h47.19.972399 -0500,
0,0,0,0,9,0,9,0,,,,,,,,,,,,,277.16826070000025,,,,,,,,277.1543335000024,282.15182450000066,282.15183049999905,282.1682729999993,294.1521724000013,1,active,42.4,294.15231610000046,295.8867003000014,45.99999999999991,1.715,294.1850228000003,,,,,,,,,,,,,,,,,,,,,,,,,,,,,,,,,,,,,,sub-051,41.0,42.4,41.8,COM7,2025-03-05_14h46.49.441,2024_RDpaindiscrimination_maintask,2023.2.3,59.99926800903173,2025-03-05 14h47.19.972399 -0500,
0,0,0,0,10,0,10,0,,,,,,,,,,,,,295.9017817999993,,,,,,,,295.88752640000166,300.8853225999992,300.88532920000216,300.90184339999905,312.88576230000035,2,inactive,41.0,312.8859110000012,315.5382993000021,31.500000000000135,2.633,312.91863340000054,,,,,,,,,,,,,,,,,,,,,,,,,,,,,,,,,,,,,,sub-051,41.0,42.4,41.8,COM7,2025-03-05_14h46.49.441,2024_RDpaindiscrimination_maintask,2023.2.3,59.99926800903173,2025-03-05 14h47.19.972399 -0500,
0,0,0,0,11,0,11,0,,,,,,,,,,,,,315.55200759999934,,,,,,,,315.53907360000085,320.5355512999995,320.5355593000022,320.55204220000087,332.5359334999994,3,active,42.4,332.53607900000134,334.3871973999994,59.99999999999989,1.832,332.56888710000203,,,,,,,,,,,,,,,,,,,,,,,,,,,,,,,,,,,,,,sub-051,41.0,42.4,41.8,COM7,2025-03-05_14h46.49.441,2024_RDpaindiscrimination_maintask,2023.2.3,59.99926800903173,2025-03-05 14h47.19.972399 -0500,
0,0,0,0,12,0,12,0,,,,,,,,,,,,,334.4021920000014,,,,,,,,334.38802489999944,339.38576470000044,339.38577129999976,339.40225270000155,351.3861711999998,0,inactive,41.0,351.38631729999906,354.67080500000156,17.00000000000021,3.264,351.419001000002,,,,,,,,,,,,,,,,,,,,,,,,,,,,,,,,,,,,,,sub-051,41.0,42.4,41.8,COM7,2025-03-05_14h46.49.441,2024_RDpaindiscrimination_maintask,2023.2.3,59.99926800903173,2025-03-05 14h47.19.972399 -0500,
0,0,0,0,13,0,13,0,,,,,,,,,,,,,354.6857559000018,,,,,,,,354.6716047000009,359.6692924000017,359.66929829999935,359.68580479999946,371.66974090000076,1,inactive,41.0,371.6698820999991,372.7559719000019,23.000000000000025,1.066,371.70256150000205,,,,,,,,,,,,,,,,,,,,,,,,,,,,,,,,,,,,,,sub-051,41.0,42.4,41.8,COM7,2025-03-05_14h46.49.441,2024_RDpaindiscrimination_maintask,2023.2.3,59.99926800903173,2025-03-05 14h47.19.972399 -0500,
0,0,0,0,14,0,14,0,,,,,,,,,,,,,372.76926169999933,,,,,,,,372.7567826000013,377.7527470000023,377.75275300000067,377.76920520000203,389.75331089999963,2,active,42.4,389.7534570000025,391.70432470000014,56.49999999999991,1.931,389.7861176000006,,,,,,,,,,,,,,,,,,,,,,,,,,,,,,,,,,,,,,sub-051,41.0,42.4,41.8,COM7,2025-03-05_14h46.49.441,2024_RDpaindiscrimination_maintask,2023.2.3,59.99926800903173,2025-03-05 14h47.19.972399 -0500,
0,0,0,0,15,0,15,0,,,,,,,,,,,,,391.7194152000011,,,,,,,,391.705119000002,396.70287370000005,396.70288000000073,396.719369800001,408.7034574999998,3,active,42.4,408.7035997999992,410.6391607000005,66.00000000000006,1.915,408.7363168000011,,,,,,,,,,,,,,,,,,,,,,,,,,,,,,,,,,,,,,sub-051,41.0,42.4,41.8,COM7,2025-03-05_14h46.49.441,2024_RDpaindiscrimination_maintask,2023.2.3,59.99926800903173,2025-03-05 14h47.19.972399 -0500,
0,0,0,0,,,,,0,0,0,0,0,0,0,0,,,,,495.1038742000019,,,,,,492.6044557999994,495.08750520000103,,,,,,0,active,41.0,512.0877584000009,514.9902051000026,26.500000000000057,2.884,,410.63962040000115,410.6528897999997,492.6041225000008,495.0878097999994,500.0874216000011,500.08742840000195,500.1039008000007,512.1207525999998,512.0877505000026,,,,,,,,,,,,,,,,,,,,,,,,,,,,,sub-051,41.0,42.4,41.8,COM7,2025-03-05_14h46.49.441,2024_RDpaindiscrimination_maintask,2023.2.3,59.99926800903173,2025-03-05 14h47.19.972399 -0500,
0,0,0,0,,,,,0,0,0,0,1,0,1,0,,,,,515.0041141000002,,,,,,,,,,,,,1,inactive,41.0,531.9880553000003,533.4560597000018,50.0,1.449,,,,,514.9909939000026,519.9876146000024,519.9876208999995,520.0041820000006,532.0209609000012,531.988047400002,,,,,,,,,,,,,,,,,,,,,,,,,,,,,sub-051,41.0,42.4,41.8,COM7,2025-03-05_14h46.49.441,2024_RDpaindiscrimination_maintask,2023.2.3,59.99926800903173,2025-03-05 14h47.19.972399 -0500,
0,0,0,0,,,,,0,0,0,0,,,,,0,0,0,0,544.1710678000018,,,,,,,,,,,,,2,inactive,,,,,,,,,,,,,,,,533.4565972000019,544.1547996000008,544.1551378000004,549.1552798000012,549.1552860000011,549.1711439999999,557.1545311000009,557.1545311000009,560.1212409,560.154613900002,560.154613900002,560.1380444999995,3.63,5.17,363,517,8,1.2,0.75,pic-absent,0,m,1.0702234000018507,None,,,,,sub-051,41.0,42.4,41.8,COM7,2025-03-05_14h46.49.441,2024_RDpaindiscrimination_maintask,2023.2.3,59.99926800903173,2025-03-05 14h47.19.972399 -0500,
0,0,0,0,,,,,0,0,0,0,,,,,1,0,1,0,560.154613900002,,,,,,,,,,,,,3,active,,,,,,,,,,,,,,,,,,560.1386711000014,565.1381741000005,565.1381814000015,565.154675400001,573.1380370000006,573.1380370000006,576.1047906000022,576.1381239000002,576.1381239000002,576.1216640999992,3.47,5.33,347,533,8,1.2,0.75,pic-present,1,n,0.6097909999989497,None,,,,,sub-051,41.0,42.4,41.8,COM7,2025-03-05_14h46.49.441,2024_RDpaindiscrimination_maintask,2023.2.3,59.99926800903173,2025-03-05 14h47.19.972399 -0500,
0,0,0,0,,,,,0,0,0,0,,,,,2,0,2,0,576.1381239000002,,,,,,,,,,,,,0,active,,,,,,,,,,,,,,,,,,576.1222436999997,581.1216282999994,581.1216346000001,581.1381753000023,589.1215938999994,589.1215938999994,592.0882990999999,592.1216361000006,592.1216361000006,592.1051447999998,3.85,4.95,385,495,8,1.2,0.75,pic-present,0,m,0.4515235999970173,None,,,,,sub-051,41.0,42.4,41.8,COM7,2025-03-05_14h46.49.441,2024_RDpaindiscrimination_maintask,2023.2.3,59.99926800903173,2025-03-05 14h47.19.972399 -0500,
0,0,0,0,,,,,0,0,0,0,,,,,3,0,3,0,592.1216361000006,,,,,,,,,,,,,1,inactive,,,,,,,,,,,,,,,,,,592.1056564999999,597.1052018000009,597.1052079000001,597.1216884999994,605.1051057000004,605.1051057000004,608.0718035999998,608.1051714999994,608.1051714999994,608.0886705000012,3.48,5.32,348,532,8,1.2,0.75,pic-absent,0,m,0.5104372000023432,None,,,,,sub-051,41.0,42.4,41.8,COM7,2025-03-05_14h46.49.441,2024_RDpaindiscrimination_maintask,2023.2.3,59.99926800903173,2025-03-05 14h47.19.972399 -0500,
0,0,0,0,,,,,1,0,1,0,0,0,0,0,,,,,613.5718230999992,,,,,,608.0891828999993,613.5554708000018,,,,,,2,inactive,41.0,630.5558328000006,633.1068149000021,9.500000000000027,2.532,,,,,613.5557765000012,618.5554153000012,618.5554217999997,618.571889400002,630.5887664000002,630.5558244000022,,,,,,,,,,,,,,,,,,,,,,,,,,,,,sub-051,41.0,42.4,41.8,COM7,2025-03-05_14h46.49.441,2024_RDpaindiscrimination_maintask,2023.2.3,59.99926800903173,2025-03-05 14h47.19.972399 -0500,
0,0,0,0,,,,,1,0,1,0,1,0,1,0,,,,,633.1220869999997,,,,,,,,,,,,,3,active,41.0,650.1060556000011,652.1900299000008,17.000000000000103,2.065,,,,,633.1075732000027,638.105609000002,638.1056161000015,638.1220740999997,650.1389254000023,650.1060452999991,,,,,,,,,,,,,,,,,,,,,,,,,,,,,sub-051,41.0,42.4,41.8,COM7,2025-03-05_14h46.49.441,2024_RDpaindiscrimination_maintask,2023.2.3,59.99926800903173,2025-03-05 14h47.19.972399 -0500,
0,0,0,0,,,,,1,0,1,0,,,,,0,0,0,0,656.6556354999993,,,,,,,,,,,,,0,active,,,,,,,,,,,,,,,,652.1905657999996,656.6392857999999,656.6396170000007,661.6393081999995,661.6393153000026,661.6558669000005,669.6390764000025,669.6390764000025,672.6057424999999,672.6390732,672.6390732,672.6225868000001,4.03,4.77,403,476,8,1.2,0.75,pic-absent,0,m,0.9652376999983971,None,,,,,sub-051,41.0,42.4,41.8,COM7,2025-03-05_14h46.49.441,2024_RDpaindiscrimination_maintask,2023.2.3,59.99926800903173,2025-03-05 14h47.19.972399 -0500,
0,0,0,0,,,,,1,0,1,0,,,,,1,0,1,0,672.6390732,,,,,,,,,,,,,1,inactive,,,,,,,,,,,,,,,,,,672.6231511000005,677.6226623000002,677.6226688000024,677.6391586999998,685.6226523000005,685.6226523000005,688.5892396000017,688.622583700002,688.622583700002,688.6061389999995,4.64,4.16,463,416,8,1.2,0.75,pic-present,1,n,0.7414551000001666,None,,,,,sub-051,41.0,42.4,41.8,COM7,2025-03-05_14h46.49.441,2024_RDpaindiscrimination_maintask,2023.2.3,59.99926800903173,2025-03-05 14h47.19.972399 -0500,
0,0,0,0,,,,,1,0,1,0,,,,,2,0,2,0,688.622583700002,,,,,,,,,,,,,2,active,,,,,,,,,,,,,,,,,,688.606644200001,693.6063877000015,693.6063940000022,693.6227299999991,701.6060957000009,701.6060957000009,704.5727951000008,704.6061636000013,704.6061636000013,704.5896377999998,4.09,4.71,409,471,8,1.2,0.75,pic-absent,0,m,0.3780856000012136,None,,,,,sub-051,41.0,42.4,41.8,COM7,2025-03-05_14h46.49.441,2024_RDpaindiscrimination_maintask,2023.2.3,59.99926800903173,2025-03-05 14h47.19.972399 -0500,
0,0,0,0,,,,,1,0,1,0,,,,,3,0,3,0,704.6061636000013,,,,,,,,,,,,,3,active,,,,,,,,,,,,,,,,,,704.5901639000003,709.5896381999992,709.589645,709.6061829999999,717.5896687999993,717.5896687999993,720.5563809000014,720.5897141000023,720.5897141000023,720.5731857999999,3.92,4.88,392,488,8,1.2,0.75,pic-present,1,n,0.4823279000011098,None,,,,,sub-051,41.0,42.4,41.8,COM7,2025-03-05_14h46.49.441,2024_RDpaindiscrimination_maintask,2023.2.3,59.99926800903173,2025-03-05 14h47.19.972399 -0500,
0,0,0,0,,,,,2,0,2,0,0,0,0,0,,,,,728.6564919000011,,,,,,720.5736787000023,728.6400988000023,,,,,,0,active,41.0,745.6404366999996,746.7251391999998,30.0,1.065,,,,,728.6404364000009,733.6399980000024,733.6400054000005,733.6566072999995,745.6733598999999,745.640428900002,,,,,,,,,,,,,,,,,,,,,,,,,,,,,sub-051,41.0,42.4,41.8,COM7,2025-03-05_14h46.49.441,2024_RDpaindiscrimination_maintask,2023.2.3,59.99926800903173,2025-03-05 14h47.19.972399 -0500,
0,0,0,0,,,,,2,0,2,0,1,0,1,0,,,,,746.7399108999998,,,,,,,,,,,,,1,inactive,41.0,763.7237609000003,765.5573508000016,24.499999999999986,1.813,,,,,746.7258942000008,751.7235364000007,751.7235424999999,751.7401038000025,763.7568556000006,763.7237538000008,,,,,,,,,,,,,,,,,,,,,,,,,,,,,sub-051,41.0,42.4,41.8,COM7,2025-03-05_14h46.49.441,2024_RDpaindiscrimination_maintask,2023.2.3,59.99926800903173,2025-03-05 14h47.19.972399 -0500,
0,0,0,0,,,,,2,0,2,0,,,,,0,0,0,0,770.5402235000001,,,,,,,,,,,,,2,inactive,,,,,,,,,,,,,,,,765.5575164000002,770.5238576000011,770.5241812000022,775.5238253999996,775.5238322000005,775.5402185000021,783.5237275,783.5237275,786.4904301999995,786.5238022000012,786.5238022000012,786.5072423999991,4.34,4.46,434,446,8,1.2,0.75,pic-present,1,n,0.5804028999991715,None,,,,,sub-051,41.0,42.4,41.8,COM7,2025-03-05_14h46.49.441,2024_RDpaindiscrimination_maintask,2023.2.3,59.99926800903173,2025-03-05 14h47.19.972399 -0500,
0,0,0,0,,,,,2,0,2,0,,,,,1,0,1,0,786.5238022000012,,,,,,,,,,,,,3,active,,,,,,,,,,,,,,,,,,786.5077927999992,791.5073255000025,791.5073322000026,791.5238430999998,799.5072094999996,799.5072094999996,802.4739378000013,802.5072518000015,802.5072518000015,802.4907500000008,3.46,5.34,346,534,8,1.2,0.75,pic-absent,0,m,0.6172990999984904,None,,,,,sub-051,41.0,42.4,41.8,COM7,2025-03-05_14h46.49.441,2024_RDpaindiscrimination_maintask,2023.2.3,59.99926800903173,2025-03-05 14h47.19.972399 -0500,
0,0,0,0,,,,,2,0,2,0,,,,,2,0,2,0,802.5072518000015,,,,,,,,,,,,,0,inactive,,,,,,,,,,,,,,,,,,802.4912205,807.4908056000022,807.490812,807.5072282000001,815.4907248000018,815.4907248000018,818.4573848,818.4907609000002,818.4907609000002,818.4742678000002,3.45,5.35,345,535,8,1.2,0.75,pic-present,0,m,0.6530888000015693,None,,,,,sub-051,41.0,42.4,41.8,COM7,2025-03-05_14h46.49.441,2024_RDpaindiscrimination_maintask,2023.2.3,59.99926800903173,2025-03-05 14h47.19.972399 -0500,
0,0,0,0,,,,,2,0,2,0,,,,,3,0,3,0,818.4907609000002,,,,,,,,,,,,,1,active,,,,,,,,,,,,,,,,,,818.4747807999993,823.4743039000023,823.4743106999995,823.4908122000015,831.4742322999991,831.4742322999991,834.4409699999997,834.4742709999991,834.4742709999991,834.4578317000014,3.5,5.3,350,530,8,1.2,0.75,pic-absent,0,m,0.3980974999976752,None,,,,,sub-051,41.0,42.4,41.8,COM7,2025-03-05_14h46.49.441,2024_RDpaindiscrimination_maintask,2023.2.3,59.99926800903173,2025-03-05 14h47.19.972399 -0500,
0,0,0,0,,,,,3,0,3,0,0,0,0,0,,,,,838.5909795000007,,,,,,834.4583662000005,838.5746593000003,,,,,,2,inactive,41.0,855.5749510999995,857.9777598000001,24.00000000000002,2.384,,,,,838.5749757000012,843.5745652000005,843.5745715000012,843.5910346000019,855.6078242000003,855.5749431000004,,,,,,,,,,,,,,,,,,,,,,,,,,,,,sub-051,41.0,42.4,41.8,COM7,2025-03-05_14h46.49.441,2024_RDpaindiscrimination_maintask,2023.2.3,59.99926800903173,2025-03-05 14h47.19.972399 -0500,
0,0,0,0,,,,,3,0,3,0,1,0,1,0,,,,,857.9911912000025,,,,,,,,,,,,,3,active,41.0,874.975227400002,878.5276470999997,16.50000000000021,3.533,,,,,857.9785480999999,862.9747443000015,862.9747511999994,862.9912074000022,875.0080493000023,874.9752195000001,,,,,,,,,,,,,,,,,,,,,,,,,,,,,sub-051,41.0,42.4,41.8,COM7,2025-03-05_14h46.49.441,2024_RDpaindiscrimination_maintask,2023.2.3,59.99926800903173,2025-03-05 14h47.19.972399 -0500,
0,0,0,0,,,,,3,0,3,0,,,,,0,0,0,0,882.9913653000003,,,,,,,,,,,,,0,active,,,,,,,,,,,,,,,,878.5282550000011,882.9749607000012,882.9752733000023,887.9749171000003,887.9749239000012,887.9914194000012,895.9749957000022,895.9749957000022,898.9416746000024,898.9750821000016,898.9750821000016,898.9585264000016,4.55,4.25,455,425,8,1.2,0.75,pic-present,1,n,0.6409583000022394,None,,,,,sub-051,41.0,42.4,41.8,COM7,2025-03-05_14h46.49.441,2024_RDpaindiscrimination_maintask,2023.2.3,59.99926800903173,2025-03-05 14h47.19.972399 -0500,
0,0,0,0,,,,,3,0,3,0,,,,,1,0,1,0,898.9750821000016,,,,,,,,,,,,,1,inactive,,,,,,,,,,,,,,,,,,898.9590573999994,903.9584355000006,903.9584422000007,903.9749506000007,911.9584931999998,911.9584931999998,914.9252191000014,914.9585195,914.9585195,914.9420465000003,3.61,5.19,361,519,8,1.2,0.75,pic-absent,0,m,0.37270409999837284,None,,,,,sub-051,41.0,42.4,41.8,COM7,2025-03-05_14h46.49.441,2024_RDpaindiscrimination_maintask,2023.2.3,59.99926800903173,2025-03-05 14h47.19.972399 -0500,
0,0,0,0,,,,,3,0,3,0,,,,,2,0,2,0,914.9585195,,,,,,,,,,,,,2,inactive,,,,,,,,,,,,,,,,,,914.9425590999999,919.9420396999994,919.9420458999994,919.9584185000022,927.9418767000025,927.9418767000025,930.9086559999996,930.9419441999999,930.9419441999999,930.9254603000009,3.35,5.45,335,545,8,1.2,0.75,pic-absent,0,m,0.33406250000189175,None,,,,,sub-051,41.0,42.4,41.8,COM7,2025-03-05_14h46.49.441,2024_RDpaindiscrimination_maintask,2023.2.3,59.99926800903173,2025-03-05 14h47.19.972399 -0500,
0,0,0,0,,,,,3,0,3,0,,,,,3,0,3,0,930.9419441999999,,,,,,,,,,,,,3,inactive,,,,,,,,,,,,,,,,,,930.925949299999,935.9254499000017,935.9254570000012,935.9419710000002,943.9255099000002,943.9255099000002,946.8921214000002,946.9253796000012,946.9253796000012,946.9089705000006,4.49,4.31,449,430,8,1.2,0.75,pic-present,1,n,0.29850789999909466,None,,,,,sub-051,41.0,42.4,41.8,COM7,2025-03-05_14h46.49.441,2024_RDpaindiscrimination_maintask,2023.2.3,59.99926800903173,2025-03-05 14h47.19.972399 -0500,
1,0,1,0,0,0,0,0,,,,,,,,,,,,,976.1591896999998,,,,957.9426454000022,973.7426928000023,973.7427009999992,976.1428323,976.1431417999993,981.1426604000008,981.1426666000007,981.1591681999998,993.1431732000019,0,inactive,41.0,993.143399200002,996.2789508999995,43.50000000000013,3.112,993.1759343000012,,,,,,,,,,,,,,,,,,,,,,,,,,,,,,,,,,946.9094557000026,957.9425090000004,,,sub-051,41.0,42.4,41.8,COM7,2025-03-05_14h46.49.441,2024_RDpaindiscrimination_maintask,2023.2.3,59.99926800903173,2025-03-05 14h47.19.972399 -0500,
1,0,1,0,1,0,1,0,,,,,,,,,,,,,996.2927516000018,,,,,,,,996.2798858999995,1001.2762194999996,1001.2762308000019,1001.2928128000021,1013.2766910999999,1,active,42.4,1013.2768346000012,1015.8957012999999,48.49999999999991,2.6,1013.3094720000008,,,,,,,,,,,,,,,,,,,,,,,,,,,,,,,,,,,,,,sub-051,41.0,42.4,41.8,COM7,2025-03-05_14h46.49.441,2024_RDpaindiscrimination_maintask,2023.2.3,59.99926800903173,2025-03-05 14h47.19.972399 -0500,
1,0,1,0,2,0,2,0,,,,,,,,,,,,,1015.9095849000005,,,,,,,,1015.8964196000015,1020.8930389000016,1020.8930449,1020.9096666000005,1032.8935242000007,2,inactive,41.0,1032.8936687999994,1034.7129740000019,32.499999999999964,1.8,1032.9263243999994,,,,,,,,,,,,,,,,,,,,,,,,,,,,,,,,,,,,,,sub-051,41.0,42.4,41.8,COM7,2025-03-05_14h46.49.441,2024_RDpaindiscrimination_maintask,2023.2.3,59.99926800903173,2025-03-05 14h47.19.972399 -0500,
1,0,1,0,3,0,3,0,,,,,,,,,,,,,1034.7264988999996,,,,,,,,1034.7137342999995,1039.709915800002,1039.7099216999995,1039.7265411000008,1051.7104680000011,3,active,42.4,1051.710616100001,1053.9785284999998,59.0,2.248,1051.743288400001,,,,,,,,,,,,,,,,,,,,,,,,,,,,,,,,,,,,,,sub-051,41.0,42.4,41.8,COM7,2025-03-05_14h46.49.441,2024_RDpaindiscrimination_maintask,2023.2.3,59.99926800903173,2025-03-05 14h47.19.972399 -0500,
1,0,1,0,4,0,4,0,,,,,,,,,,,,,1053.9933586000006,,,,,,,,1053.9792914999998,1058.9768943000017,1058.9769006000024,1058.993365000002,1070.9773258000023,0,inactive,41.0,1070.9774741,1074.080073000001,28.00000000000005,3.083,1071.0101853000015,,,,,,,,,,,,,,,,,,,,,,,,,,,,,,,,,,,,,,sub-051,41.0,42.4,41.8,COM7,2025-03-05_14h46.49.441,2024_RDpaindiscrimination_maintask,2023.2.3,59.99926800903173,2025-03-05 14h47.19.972399 -0500,
1,0,1,0,5,0,5,0,,,,,,,,,,,,,1074.0935933,,,,,,,,1074.0808428000018,1079.0771184000005,1079.0771246000004,1079.0935788999996,1091.0775993999996,1,inactive,41.0,1091.077745300001,1093.7970141000005,35.00000000000003,2.7,1091.110467300001,,,,,,,,,,,,,,,,,,,,,,,,,,,,,,,,,,,,,,sub-051,41.0,42.4,41.8,COM7,2025-03-05_14h46.49.441,2024_RDpaindiscrimination_maintask,2023.2.3,59.99926800903173,2025-03-05 14h47.19.972399 -0500,
1,0,1,0,6,0,6,0,,,,,,,,,,,,,1093.810476999999,,,,,,,,1093.7977629000015,1098.7939585999993,1098.7939647999992,1098.810466400002,1110.7946536000018,2,active,42.4,1110.7947937999998,1113.0792043000001,42.99999999999993,2.265,1110.8272749999996,,,,,,,,,,,,,,,,,,,,,,,,,,,,,,,,,,,,,,sub-051,41.0,42.4,41.8,COM7,2025-03-05_14h46.49.441,2024_RDpaindiscrimination_maintask,2023.2.3,59.99926800903173,2025-03-05 14h47.19.972399 -0500,
1,0,1,0,7,0,7,0,,,,,,,,,,,,,1113.0939610999994,,,,,,,,1113.0799881999992,1118.0775126000008,1118.0775190000022,1118.0940303999996,1130.0779919000015,3,inactive,41.0,1130.0781404000008,1133.1303232999999,44.49999999999992,3.033,1130.1108803000025,,,,,,,,,,,,,,,,,,,,,,,,,,,,,,,,,,,,,,sub-051,41.0,42.4,41.8,COM7,2025-03-05_14h46.49.441,2024_RDpaindiscrimination_maintask,2023.2.3,59.99926800903173,2025-03-05 14h47.19.972399 -0500,
1,0,1,0,8,0,8,0,,,,,,,,,,,,,1133.1442568999992,,,,,,,,1133.1311085000016,1138.1277326000018,1138.127738700001,1138.1442281000018,1150.1281966000024,0,active,42.4,1150.1283385000024,1152.8799436000008,29.499999999999975,2.732,1150.161100600002,,,,,,,,,,,,,,,,,,,,,,,,,,,,,,,,,,,,,,sub-051,41.0,42.4,41.8,COM7,2025-03-05_14h46.49.441,2024_RDpaindiscrimination_maintask,2023.2.3,59.99926800903173,2025-03-05 14h47.19.972399 -0500,
1,0,1,0,9,0,9,0,,,,,,,,,,,,,1152.8944942000016,,,,,,,,1152.8807350000025,1157.8779584000004,1157.8779648000018,1157.8944518000026,1169.8784749000006,1,active,42.4,1169.878620800002,1172.6139893,35.00000000000013,2.716,1169.9112733000002,,,,,,,,,,,,,,,,,,,,,,,,,,,,,,,,,,,,,,sub-051,41.0,42.4,41.8,COM7,2025-03-05_14h46.49.441,2024_RDpaindiscrimination_maintask,2023.2.3,59.99926800903173,2025-03-05 14h47.19.972399 -0500,
1,0,1,0,10,0,10,0,,,,,,,,,,,,,1172.6279429999995,,,,,,,,1172.6148071999996,1177.6115745000025,1177.6115811000018,1177.6280769000005,1189.6119842000007,2,inactive,41.0,1189.6121367000014,1191.0968405999993,22.000000000000064,1.466,1189.6447636000012,,,,,,,,,,,,,,,,,,,,,,,,,,,,,,,,,,,,,,sub-051,41.0,42.4,41.8,COM7,2025-03-05_14h46.49.441,2024_RDpaindiscrimination_maintask,2023.2.3,59.99926800903173,2025-03-05 14h47.19.972399 -0500,
1,0,1,0,11,0,11,0,,,,,,,,,,,,,1191.1116212000015,,,,,,,,1191.0976929000026,1196.0950623999997,1196.0950731000012,1196.111517199999,1208.095492200002,3,inactive,41.0,1208.095640800002,1210.8481794,40.50000000000001,2.733,1208.1282988999992,,,,,,,,,,,,,,,,,,,,,,,,,,,,,,,,,,,,,,sub-051,41.0,42.4,41.8,COM7,2025-03-05_14h46.49.441,2024_RDpaindiscrimination_maintask,2023.2.3,59.99926800903173,2025-03-05 14h47.19.972399 -0500,
1,0,1,0,12,0,12,0,,,,,,,,,,,,,1210.8617611000009,,,,,,,,1210.8489284000025,1215.8453334000005,1215.845339899999,1215.8617799999993,1227.8457388000024,0,active,42.4,1227.8458815000013,1230.8973412000014,19.500000000000213,3.032,1227.8786215,,,,,,,,,,,,,,,,,,,,,,,,,,,,,,,,,,,,,,sub-051,41.0,42.4,41.8,COM7,2025-03-05_14h46.49.441,2024_RDpaindiscrimination_maintask,2023.2.3,59.99926800903173,2025-03-05 14h47.19.972399 -0500,
1,0,1,0,13,0,13,0,,,,,,,,,,,,,1230.9119941000026,,,,,,,,1230.8980881000025,1235.895500999999,1235.8955072000026,1235.912026599999,1247.8959781000012,1,inactive,41.0,1247.8961182999992,1249.7969525000008,30.0,1.795,1248.0121565000009,,,,,,,,,,,,,,,,,,,,,,,,,,,,,,,,,,,,,,sub-051,41.0,42.4,41.8,COM7,2025-03-05_14h46.49.441,2024_RDpaindiscrimination_maintask,2023.2.3,59.99926800903173,2025-03-05 14h47.19.972399 -0500,
1,0,1,0,14,0,14,0,,,,,,,,,,,,,1249.8122043000003,,,,,,,,1249.7977114999994,1254.7957962,1254.7958027000022,1254.8122433999997,1266.7961327000012,2,active,42.4,1266.7962819999993,1270.2327393000014,50.9999999999999,3.417,1266.8290449000015,,,,,,,,,,,,,,,,,,,,,,,,,,,,,,,,,,,,,,sub-051,41.0,42.4,41.8,COM7,2025-03-05_14h46.49.441,2024_RDpaindiscrimination_maintask,2023.2.3,59.99926800903173,2025-03-05 14h47.19.972399 -0500,
1,0,1,0,15,0,15,0,,,,,,,,,,,,,1270.2457528000014,,,,,,,,1270.2335798000022,1275.2292522000025,1275.229258700001,1275.2457445,1287.229772900002,3,active,42.4,1287.2299203000002,1289.2809818000023,68.9999999999999,2.031,1287.2626308,,,,,,,,,,,,,,,,,,,,,,,,,,,,,,,,,,,,,,sub-051,41.0,42.4,41.8,COM7,2025-03-05_14h46.49.441,2024_RDpaindiscrimination_maintask,2023.2.3,59.99926800903173,2025-03-05 14h47.19.972399 -0500,
1,0,1,0,,,,,0,0,0,0,0,0,0,0,,,,,1300.7627820000016,,,,,,1298.7299781000002,1300.7465185,,,,,,0,inactive,41.0,1317.7467324999998,1319.3988656000001,31.5000000000001,1.632,,1289.2815289999999,1289.2959569000013,1298.7296554999994,1300.746811500001,1305.7462997000002,1305.7463062000024,1305.7628409000026,1317.7796264000026,1317.7467245000007,,,,,,,,,,,,,,,,,,,,,,,,,,,,,sub-051,41.0,42.4,41.8,COM7,2025-03-05_14h46.49.441,2024_RDpaindiscrimination_maintask,2023.2.3,59.99926800903173,2025-03-05 14h47.19.972399 -0500,
1,0,1,0,,,,,0,0,0,0,1,0,1,0,,,,,1319.412919800001,,,,,,,,,,,,,1,active,41.0,1336.3969625999998,1338.0479388000022,36.500000000000085,1.632,,,,,1319.3996695999995,1324.3964438000003,1324.3964506000011,1324.4129524000018,1336.4298707000016,1336.3969547000015,,,,,,,,,,,,,,,,,,,,,,,,,,,,,sub-051,41.0,42.4,41.8,COM7,2025-03-05_14h46.49.441,2024_RDpaindiscrimination_maintask,2023.2.3,59.99926800903173,2025-03-05 14h47.19.972399 -0500,
1,0,1,0,,,,,0,0,0,0,,,,,0,0,0,0,1344.1465955000021,,,,,,,,,,,,,2,active,,,,,,,,,,,,,,,,1338.0484758999992,1344.1301786000004,1344.1305248000026,1349.1301353000017,1349.130141900001,1349.1465841999998,1357.1300494000025,1357.1300494000025,1360.0967698000022,1360.1300953999998,1360.1300953999998,1360.1136779000008,4.65,4.15,465,415,8,1.2,0.75,pic-present,1,n,0.6137102000029699,None,,,,,sub-051,41.0,42.4,41.8,COM7,2025-03-05_14h46.49.441,2024_RDpaindiscrimination_maintask,2023.2.3,59.99926800903173,2025-03-05 14h47.19.972399 -0500,
1,0,1,0,,,,,0,0,0,0,,,,,1,0,1,0,1360.1300953999998,,,,,,,,,,,,,3,active,,,,,,,,,,,,,,,,,,1360.1142297000006,1365.1136831000003,1365.1136915000025,1365.1301424000012,1373.1136244000008,1373.1136244000008,1376.0802676000021,1376.1136050999994,1376.1136050999994,1376.0971200999993,3.28,5.52,328,552,8,1.2,0.75,pic-absent,0,m,0.5860958999983268,None,,,,,sub-051,41.0,42.4,41.8,COM7,2025-03-05_14h46.49.441,2024_RDpaindiscrimination_maintask,2023.2.3,59.99926800903173,2025-03-05 14h47.19.972399 -0500,
1,0,1,0,,,,,0,0,0,0,,,,,2,0,2,0,1376.1136050999994,,,,,,,,,,,,,0,inactive,,,,,,,,,,,,,,,,,,1376.0976286000005,1381.0971164000002,1381.0971231000003,1381.1136283000014,1389.0970602000016,1389.0970602000016,1392.0637107000002,1392.0970304000002,1392.0970304000002,1392.0805409000022,3.72,5.08,372,508,8,1.2,0.75,pic-present,0,m,0.37014840000119875,None,,,,,sub-051,41.0,42.4,41.8,COM7,2025-03-05_14h46.49.441,2024_RDpaindiscrimination_maintask,2023.2.3,59.99926800903173,2025-03-05 14h47.19.972399 -0500,
1,0,1,0,,,,,0,0,0,0,,,,,3,0,3,0,1392.0970304000002,,,,,,,,,,,,,1,inactive,,,,,,,,,,,,,,,,,,1392.0810617999996,1397.0805403000013,1397.0805467999999,1397.0970717000018,1405.0804430999997,1405.0804430999997,1408.0472835,1408.0805947000008,1408.0805947000008,1408.0641424999994,4.1,4.7,409,470,8,1.2,0.75,pic-absent,0,m,0.49488410000049043,None,,,,,sub-051,41.0,42.4,41.8,COM7,2025-03-05_14h46.49.441,2024_RDpaindiscrimination_maintask,2023.2.3,59.99926800903173,2025-03-05 14h47.19.972399 -0500,
1,0,1,0,,,,,1,0,1,0,0,0,0,0,,,,,1413.5472045999995,,,,,,1408.0647476000013,1413.5308576000025,,,,,,2,active,41.0,1430.5311767999992,1433.1493154000018,47.9999999999999,2.599,,,,,1413.531152200001,1418.5307436000003,1418.5307501000025,1418.5472569000012,1430.5642024000008,1430.5311688000002,,,,,,,,,,,,,,,,,,,,,,,,,,,,,sub-051,41.0,42.4,41.8,COM7,2025-03-05_14h46.49.441,2024_RDpaindiscrimination_maintask,2023.2.3,59.99926800903173,2025-03-05 14h47.19.972399 -0500,
1,0,1,0,,,,,1,0,1,0,1,0,1,0,,,,,1433.1641302999997,,,,,,,,,,,,,3,inactive,41.0,1450.1482491000024,1453.5156750999995,33.00000000000003,3.348,,,,,1433.1500787000004,1438.1478573000022,1438.147867300002,1438.1642533000013,1450.1810975000008,1450.1482413000012,,,,,,,,,,,,,,,,,,,,,,,,,,,,,sub-051,41.0,42.4,41.8,COM7,2025-03-05_14h46.49.441,2024_RDpaindiscrimination_maintask,2023.2.3,59.99926800903173,2025-03-05 14h47.19.972399 -0500,
1,0,1,0,,,,,1,0,1,0,,,,,0,0,0,0,1456.964566300001,,,,,,,,,,,,,0,active,,,,,,,,,,,,,,,,1453.5162185000008,1456.9481904999993,1456.9485048999995,1461.9479907000023,1461.9479974000024,1461.964436000002,1469.9479780000001,1469.9479780000001,1472.914592000001,1472.9479238000022,1472.9479238000022,1472.931482600001,3.56,5.24,356,524,8,1.2,0.75,pic-absent,0,m,0.38020350000078906,None,,,,,sub-051,41.0,42.4,41.8,COM7,2025-03-05_14h46.49.441,2024_RDpaindiscrimination_maintask,2023.2.3,59.99926800903173,2025-03-05 14h47.19.972399 -0500,
1,0,1,0,,,,,1,0,1,0,,,,,1,0,1,0,1472.9479238000022,,,,,,,,,,,,,1,inactive,,,,,,,,,,,,,,,,,,1472.9320267000003,1477.9315177000026,1477.9315247000013,1477.9479711000022,1485.9314713999993,1485.9314713999993,1488.8981009000017,1488.931443100002,1488.931443100002,1488.9149383000004,3.48,5.32,348,532,8,1.2,0.75,pic-present,1,n,0.6117888000007952,None,,,,,sub-051,41.0,42.4,41.8,COM7,2025-03-05_14h46.49.441,2024_RDpaindiscrimination_maintask,2023.2.3,59.99926800903173,2025-03-05 14h47.19.972399 -0500,
1,0,1,0,,,,,1,0,1,0,,,,,2,0,2,0,1488.931443100002,,,,,,,,,,,,,2,active,,,,,,,,,,,,,,,,,,1488.9154462000006,1493.9150160999998,1493.915022600002,1493.9314859000006,1501.9149032000023,1501.9149032000023,1504.8816466999997,1504.9149441000009,1504.9149441000009,1504.8984571,3.99,4.81,399,480,8,1.2,0.75,pic-absent,0,m,0.4560918000024685,None,,,,,sub-051,41.0,42.4,41.8,COM7,2025-03-05_14h46.49.441,2024_RDpaindiscrimination_maintask,2023.2.3,59.99926800903173,2025-03-05 14h47.19.972399 -0500,
1,0,1,0,,,,,1,0,1,0,,,,,3,0,3,0,1504.9149441000009,,,,,,,,,,,,,3,active,,,,,,,,,,,,,,,,,,1504.8989533999993,1509.8985482000026,1509.8985555,1509.9149653000022,1517.8985066999994,1517.8985066999994,1520.8651157000022,1520.8984557000003,1520.8984557000003,1520.8819629999998,4.56,4.24,455,424,8,1.2,0.75,pic-absent,0,m,0.4401538999991317,None,,,,,sub-051,41.0,42.4,41.8,COM7,2025-03-05_14h46.49.441,2024_RDpaindiscrimination_maintask,2023.2.3,59.99926800903173,2025-03-05 14h47.19.972399 -0500,
1,0,1,0,,,,,2,0,2,0,0,0,0,0,,,,,1523.9984514999996,,,,,,1520.8825066000027,1523.9821895999994,,,,,,0,active,41.0,1540.9826190999993,1544.8345594999992,15.000000000000075,3.833,,,,,1523.982526300002,1528.9820572999997,1528.982063899999,1528.998549,1541.0154220000004,1540.9826089000017,,,,,,,,,,,,,,,,,,,,,,,,,,,,,sub-051,41.0,42.4,41.8,COM7,2025-03-05_14h46.49.441,2024_RDpaindiscrimination_maintask,2023.2.3,59.99926800903173,2025-03-05 14h47.19.972399 -0500,
1,0,1,0,,,,,2,0,2,0,1,0,1,0,,,,,1544.8488094000022,,,,,,,,,,,,,1,inactive,41.0,1561.8327056000016,1563.3182963,7.499999999999998,1.466,,,,,1544.835339600002,1549.8322712000008,1549.8322781999996,1549.848771500001,1561.8655282,1561.832698099999,,,,,,,,,,,,,,,,,,,,,,,,,,,,,sub-051,41.0,42.4,41.8,COM7,2025-03-05_14h46.49.441,2024_RDpaindiscrimination_maintask,2023.2.3,59.99926800903173,2025-03-05 14h47.19.972399 -0500,
1,0,1,0,,,,,2,0,2,0,,,,,0,0,0,0,1568.998988200001,,,,,,,,,,,,,2,inactive,,,,,,,,,,,,,,,,1563.3188169000023,1568.9825375,1568.9828543000003,1573.9826448000022,1573.9826520999995,1573.9990370000014,1581.9824761000018,1581.9824761000018,1584.9491968000002,1584.9825383999996,1584.9825383999996,1584.9660489000016,4.44,4.36,444,436,8,1.2,0.75,pic-present,1,n,0.34876079999958165,None,,,,,sub-051,41.0,42.4,41.8,COM7,2025-03-05_14h46.49.441,2024_RDpaindiscrimination_maintask,2023.2.3,59.99926800903173,2025-03-05 14h47.19.972399 -0500,
1,0,1,0,,,,,2,0,2,0,,,,,1,0,1,0,1584.9825383999996,,,,,,,,,,,,,3,inactive,,,,,,,,,,,,,,,,,,1584.9665838,1589.9660259000011,1589.9660323999997,1589.9825292000023,1597.9660138,1597.9660138,1600.9326346000016,1600.9659751,1600.9659751,1600.9494763000002,4.21,4.59,421,459,8,1.2,0.75,pic-absent,0,m,1.3607253000009223,None,,,,,sub-051,41.0,42.4,41.8,COM7,2025-03-05_14h46.49.441,2024_RDpaindiscrimination_maintask,2023.2.3,59.99926800903173,2025-03-05 14h47.19.972399 -0500,
1,0,1,0,,,,,2,0,2,0,,,,,2,0,2,0,1600.9659751,,,,,,,,,,,,,0,active,,,,,,,,,,,,,,,,,,1600.9499388000004,1605.9495232000008,1605.949530400001,1605.9660234000003,1613.9494632000024,1613.9494632000024,1616.916148700002,1616.9495363999995,1616.9495363999995,1616.9329840999999,3.95,4.85,395,484,8,1.2,0.75,pic-present,1,n,0.5778447000011511,None,,,,,sub-051,41.0,42.4,41.8,COM7,2025-03-05_14h46.49.441,2024_RDpaindiscrimination_maintask,2023.2.3,59.99926800903173,2025-03-05 14h47.19.972399 -0500,
1,0,1,0,,,,,2,0,2,0,,,,,3,0,3,0,1616.9495363999995,,,,,,,,,,,,,1,inactive,,,,,,,,,,,,,,,,,,1616.9334844000005,1621.9330907000003,1621.9330974000004,1621.9495179000005,1629.9329538999991,1629.9329538999991,1632.8997488000023,1632.933056400001,1632.933056400001,1632.9166345000012,3.4,5.4,340,540,8,1.2,0.75,pic-present,1,n,0.29844450000018696,None,,,,,sub-051,41.0,42.4,41.8,COM7,2025-03-05_14h46.49.441,2024_RDpaindiscrimination_maintask,2023.2.3,59.99926800903173,2025-03-05 14h47.19.972399 -0500,
1,0,1,0,,,,,3,0,3,0,0,0,0,0,,,,,1636.816363500002,,,,,,1632.9171566000005,1636.8000563999994,,,,,,2,inactive,41.0,1653.8004727000007,1655.1529876000022,26.500000000000014,1.334,,,,,1636.8003829000008,1641.7999143000015,1641.7999216999997,1641.816429800001,1653.8333127000005,1653.8004642000014,,,,,,,,,,,,,,,,,,,,,,,,,,,,,sub-051,41.0,42.4,41.8,COM7,2025-03-05_14h46.49.441,2024_RDpaindiscrimination_maintask,2023.2.3,59.99926800903173,2025-03-05 14h47.19.972399 -0500,
1,0,1,0,,,,,3,0,3,0,1,0,1,0,,,,,1655.166627900002,,,,,,,,,,,,,3,active,41.0,1672.1507009000015,1674.635173999999,22.50000000000017,2.465,,,,,1655.1537726000024,1660.1501444000023,1660.1501509000009,1660.1667611000012,1672.1835318000012,1672.1506932000011,,,,,,,,,,,,,,,,,,,,,,,,,,,,,sub-051,41.0,42.4,41.8,COM7,2025-03-05_14h46.49.441,2024_RDpaindiscrimination_maintask,2023.2.3,59.99926800903173,2025-03-05 14h47.19.972399 -0500,
1,0,1,0,,,,,3,0,3,0,,,,,0,0,0,0,1679.5835509000026,,,,,,,,,,,,,0,inactive,,,,,,,,,,,,,,,,1674.6357372999992,1679.5719506999994,1679.5722653000012,1684.5670807999995,1684.5670873000017,1684.5835934999996,1692.5836853,1692.5836853,1695.5337228000026,1695.5837119999997,1695.5837119999997,1695.567420200001,4.36,4.44,436,444,8,1.2,0.75,pic-absent,0,m,0.4749112999998033,None,,,,,sub-051,41.0,42.4,41.8,COM7,2025-03-05_14h46.49.441,2024_RDpaindiscrimination_maintask,2023.2.3,59.99926800903173,2025-03-05 14h47.19.972399 -0500,
1,0,1,0,,,,,3,0,3,0,,,,,1,0,1,0,1695.5837119999997,,,,,,,,,,,,,1,active,,,,,,,,,,,,,,,,,,1695.5680025000001,1700.5672993000007,1700.5673062999995,1700.5837658000019,1708.5671870000006,1708.5671870000006,1711.533922999999,1711.5673002000003,1711.5673002000003,1711.5507438999994,3.99,4.81,399,480,8,1.2,0.75,pic-present,0,m,1.2638244000008854,None,,,,,sub-051,41.0,42.4,41.8,COM7,2025-03-05_14h46.49.441,2024_RDpaindiscrimination_maintask,2023.2.3,59.99926800903173,2025-03-05 14h47.19.972399 -0500,
1,0,1,0,,,,,3,0,3,0,,,,,2,0,2,0,1711.5673002000003,,,,,,,,,,,,,2,inactive,,,,,,,,,,,,,,,,,,1711.551241699999,1716.5507792000026,1716.550786300002,1716.5672742999996,1724.5507020000005,1724.5507020000005,1727.5174789000012,1727.5508121999992,1727.5508121999992,1727.5343697999997,3.93,4.87,393,487,8,1.2,0.75,pic-absent,0,m,0.4762250000021595,None,,,,,sub-051,41.0,42.4,41.8,COM7,2025-03-05_14h46.49.441,2024_RDpaindiscrimination_maintask,2023.2.3,59.99926800903173,2025-03-05 14h47.19.972399 -0500,
1,0,1,0,,,,,3,0,3,0,,,,,3,0,3,0,1727.5508121999992,,,,,,,,,,,,,3,active,,,,,,,,,,,,,,,,,,1727.5348799999992,1732.5343003000016,1732.5343073000004,1732.5507867000015,1740.5342683000017,1740.5342683000017,1743.5008727000022,1743.5342789000024,1743.5342789000024,1743.5177210000002,4.34,4.46,434,446,8,1.2,0.75,pic-present,1,n,0.45704359999945154,None,,,,,sub-051,41.0,42.4,41.8,COM7,2025-03-05_14h46.49.441,2024_RDpaindiscrimination_maintask,2023.2.3,59.99926800903173,2025-03-05 14h47.19.972399 -0500,
,,,,,,,,,,,,,,,,,,,,,,,,,,,,,,,,,,,,,,,,,,,,,,,,,,,,,,,,,,,,,,,,,,,,,,,,,,1743.518178800001,1760.7513295999997,1760.7513518000014,1770.7513868000024,,,,,,,,,,,
