trials.thisRepN,trials.thisTrialN,trials.thisN,trials.thisIndex,loop_test.thisRepN,loop_test.thisTrialN,loop_test.thisN,loop_test.thisIndex,loop_eval_discri.thisRepN,loop_eval_discri.thisTrialN,loop_eval_discri.thisN,loop_eval_discri.thisIndex,loop_eval.thisRepN,loop_eval.thisTrialN,loop_eval.thisN,loop_eval.thisIndex,loop_discri.thisRepN,loop_discri.thisTrialN,loop_discri.thisN,loop_discri.thisIndex,thisRow.t,notes,Set_up.started,Set_up.stopped,electrode_check.started,electrode_check.stopped,instructions_eval.started,instructions_eval.stopped,pause_5_test.started,pause_5_test.stopped,Phase_Test.started,thermode_locali.started,Phase_Test.stopped,loca_thermode,condition,temp_trial_sent,eval_douleur.started,eval_douleur.stopped,ratingScale.response,ratingScale.rt,thermode_locali.stopped,Fin_test.started,text.started,Fin_test.stopped,pause_5_EVA.started,pause_5_EVA.stopped,tâche_EVA.started,thermode_locali_EVA.started,tâche_EVA.stopped,thermode_locali_EVA.stopped,instructions_discrim.started,instructions_discrim.stopped,pause_5_pic.started,pause_5_pic.stopped,tâche_PIC.started,thermode_locali_pic.started,percu_or.started,responser.started,thermode_locali_pic.stopped,percu_or.stopped,responser.stopped,tâche_PIC.stopped,dur_plateau1,dur_plateau2,dur_plateau1_sent,dur_plateau2_sent,start_plateau_2_resp,dur_pic,dur_rise,pic_presence,pic_response,discrimin_resp.keys,discrimin_resp.rt,discrimin_resp.duration,break_entre_bloc.started,break_entre_bloc.stopped,merci.started,merci.stopped,participant,temp_flat,temp_active,temp_pic_set,com_thermode,date,expName,psychopyVersion,frameRate,expStart,
0,0,0,0,0,0,0,0,,,,,,,,,,,,,110.01797569997143,,0.01680720003787428,90.75130360003095,90.75167460006196,94.10136730002705,94.10137499996927,110.0015195000451,110.00181629997678,115.00148650002666,115.00149170006625,115.01962869998533,127.0016525000101,0,active,44.8,127.00188200001139,129.37110170000233,8.00000000000006,2.345,,,,,,,,,,,,,,,,,,,,,,,,,,,,,,,,,,,,,,,sub-055,46,44.8,46.95,COM3,2025-06-03_10h22.16.235,2024_RDpaindiscrimination_maintask,2023.2.3,59.99869204649291,2025-06-03 10h22.35.884664 -0400,
0,0,0,0,1,0,1,0,,,,,,,,,,,,,129.38503620005213,,,,,,,,129.3720020999899,134.36847450002097,134.36847940005828,134.38496940000914,146.36886930000037,1,active,44.8,146.3690102000255,148.25307820003945,8.500000000000025,1.863,146.40183610003442,,,,,,,,,,,,,,,,,,,,,,,,,,,,,,,,,,,,,,sub-055,46,44.8,46.95,COM3,2025-06-03_10h22.16.235,2024_RDpaindiscrimination_maintask,2023.2.3,59.99869204649291,2025-06-03 10h22.35.884664 -0400,
0,0,0,0,2,0,2,0,,,,,,,,,,,,,148.2685147000011,,,,,,,,148.25383349996991,153.2520564000588,153.25206379999872,153.26858210004866,165.252363699954,2,inactive,46.0,165.2524988000514,167.80177430005278,25.500000000000085,2.529,165.28538650006521,,,,,,,,,,,,,,,,,,,,,,,,,,,,,,,,,,,,,,sub-055,46,44.8,46.95,COM3,2025-06-03_10h22.16.235,2024_RDpaindiscrimination_maintask,2023.2.3,59.99869204649291,2025-06-03 10h22.35.884664 -0400,
0,0,0,0,3,0,3,0,,,,,,,,,,,,,167.81876160006505,,,,,,,,167.80206590006128,172.80216680001467,172.80217170005199,172.81882140005473,184.80226719996426,3,active,44.8,184.80240599997342,187.32065110001713,7.000000000000095,2.498,,,,,,,,,,,,,,,,,,,,,,,,,,,,,,,,,,,,,,,sub-055,46,44.8,46.95,COM3,2025-06-03_10h22.16.235,2024_RDpaindiscrimination_maintask,2023.2.3,59.99869204649291,2025-06-03 10h22.35.884664 -0400,
0,0,0,0,4,0,4,0,,,,,,,,,,,,,187.33564559998922,,,,,,,,187.32143630005885,192.3191642999882,192.3191702000331,192.3356977000367,204.31946709996555,0,inactive,46.0,204.31960439996328,207.02046639996115,14.50000000000003,2.681,204.35250439995434,,,,,,,,,,,,,,,,,,,,,,,,,,,,,,,,,,,,,,sub-055,46,44.8,46.95,COM3,2025-06-03_10h22.16.235,2024_RDpaindiscrimination_maintask,2023.2.3,59.99869204649291,2025-06-03 10h22.35.884664 -0400,
0,0,0,0,5,0,5,0,,,,,,,,,,,,,207.03587150003295,,,,,,,,207.02127749996725,212.01942559995223,212.01943129999563,212.03592549997848,224.01966680004261,1,inactive,46.0,224.01980520004872,226.32128779997583,22.50000000000003,2.281,224.05273039999884,,,,,,,,,,,,,,,,,,,,,,,,,,,,,,,,,,,,,,sub-055,46,44.8,46.95,COM3,2025-06-03_10h22.16.235,2024_RDpaindiscrimination_maintask,2023.2.3,59.99869204649291,2025-06-03 10h22.35.884664 -0400,
0,0,0,0,6,0,6,0,,,,,,,,,,,,,226.33605799998622,,,,,,,,226.32204150001053,231.31960829999298,231.3196137000341,231.33610730001237,243.31986090005375,2,active,44.8,243.31999890005682,246.70610920002218,7.000000000000095,3.366,243.3528696000576,,,,,,,,,,,,,,,,,,,,,,,,,,,,,,,,,,,,,,sub-055,46,44.8,46.95,COM3,2025-06-03_10h22.16.235,2024_RDpaindiscrimination_maintask,2023.2.3,59.99869204649291,2025-06-03 10h22.35.884664 -0400,
0,0,0,0,7,0,7,0,,,,,,,,,,,,,246.7196153999539,,,,,,,,246.7069269999629,251.70318379998207,251.70318960002623,251.71972140006255,263.70348110003397,3,inactive,46.0,263.703621200053,265.95555850001983,15.000000000000103,2.232,263.7365344000282,,,,,,,,,,,,,,,,,,,,,,,,,,,,,,,,,,,,,,sub-055,46,44.8,46.95,COM3,2025-06-03_10h22.16.235,2024_RDpaindiscrimination_maintask,2023.2.3,59.99869204649291,2025-06-03 10h22.35.884664 -0400,
0,0,0,0,8,0,8,0,,,,,,,,,,,,,265.96990040002856,,,,,,,,265.9563600999536,270.9534324000124,270.95343800005503,270.96995090006385,282.95375200000126,0,inactive,46.0,282.95389620005153,287.0720566000091,10.000000000000071,4.098,282.98667959996965,,,,,,,,,,,,,,,,,,,,,,,,,,,,,,,,,,,,,,sub-055,46,44.8,46.95,COM3,2025-06-03_10h22.16.235,2024_RDpaindiscrimination_maintask,2023.2.3,59.99869204649291,2025-06-03 10h22.35.884664 -0400,
0,0,0,0,9,0,9,0,,,,,,,,,,,,,287.08681909996085,,,,,,,,287.0728145999601,292.0703464000253,292.0703519999515,292.0869245000649,304.07073819998186,1,active,44.8,304.07087870000396,306.62162400002126,3.5000000000000937,2.53,304.10358900006395,,,,,,,,,,,,,,,,,,,,,,,,,,,,,,,,,,,,,,sub-055,46,44.8,46.95,COM3,2025-06-03_10h22.16.235,2024_RDpaindiscrimination_maintask,2023.2.3,59.99869204649291,2025-06-03 10h22.35.884664 -0400,
0,0,0,0,10,0,10,0,,,,,,,,,,,,,306.6370631000027,,,,,,,,306.62239709997084,311.6205981000094,311.62060589995235,311.6371077999938,323.62088139995467,2,active,44.8,323.62101909995545,328.5392138999887,4.500000000000058,4.898,323.65391440002713,,,,,,,,,,,,,,,,,,,,,,,,,,,,,,,,,,,,,,sub-055,46,44.8,46.95,COM3,2025-06-03_10h22.16.235,2024_RDpaindiscrimination_maintask,2023.2.3,59.99869204649291,2025-06-03 10h22.35.884664 -0400,
0,0,0,0,11,0,11,0,,,,,,,,,,,,,328.5539718000218,,,,,,,,328.54004860005807,333.53751110006124,333.5375167999882,333.55400150001515,345.5378015000606,3,inactive,46.0,345.5379383000545,347.73980710003525,21.5000000000001,2.182,345.5708535000449,,,,,,,,,,,,,,,,,,,,,,,,,,,,,,,,,,,,,,sub-055,46,44.8,46.95,COM3,2025-06-03_10h22.16.235,2024_RDpaindiscrimination_maintask,2023.2.3,59.99869204649291,2025-06-03 10h22.35.884664 -0400,
0,0,0,0,12,0,12,0,,,,,,,,,,,,,347.75421789998654,,,,,,,,347.7406078999629,352.7377581000328,352.73776419996284,352.7542780999793,364.73798019997776,0,active,44.8,364.73812300001737,368.64010950003285,6.500000000000165,3.833,364.8209691999946,,,,,,,,,,,,,,,,,,,,,,,,,,,,,,,,,,,,,,sub-055,46,44.8,46.95,COM3,2025-06-03_10h22.16.235,2024_RDpaindiscrimination_maintask,2023.2.3,59.99869204649291,2025-06-03 10h22.35.884664 -0400,
0,0,0,0,13,0,13,0,,,,,,,,,,,,,368.65440899995156,,,,,,,,368.6409192000283,373.63796259998344,373.6379689000314,373.65453060006257,385.63838480005506,1,inactive,46.0,385.6385379000567,387.85684460005723,18.500000000000036,2.198,385.67130359995645,,,,,,,,,,,,,,,,,,,,,,,,,,,,,,,,,,,,,,sub-055,46,44.8,46.95,COM3,2025-06-03_10h22.16.235,2024_RDpaindiscrimination_maintask,2023.2.3,59.99869204649291,2025-06-03 10h22.35.884664 -0400,
0,0,0,0,14,0,14,0,,,,,,,,,,,,,387.8713929000078,,,,,,,,387.8575993999839,392.85490120004397,392.8549067999702,392.8714286000468,404.85515479999594,2,inactive,46.0,404.8552920999937,406.7906315999571,22.5,1.915,404.8881592999678,,,,,,,,,,,,,,,,,,,,,,,,,,,,,,,,,,,,,,sub-055,46,44.8,46.95,COM3,2025-06-03_10h22.16.235,2024_RDpaindiscrimination_maintask,2023.2.3,59.99869204649291,2025-06-03 10h22.35.884664 -0400,
0,0,0,0,15,0,15,0,,,,,,,,,,,,,406.80494950001594,,,,,,,,406.79140280000865,411.7884034999879,411.7884090000298,411.80487260001246,423.78877800004557,3,active,44.8,423.7889166000532,427.29150809999555,7.5000000000002025,3.483,423.821801800048,,,,,,,,,,,,,,,,,,,,,,,,,,,,,,,,,,,,,,sub-055,46,44.8,46.95,COM3,2025-06-03_10h22.16.235,2024_RDpaindiscrimination_maintask,2023.2.3,59.99869204649291,2025-06-03 10h22.35.884664 -0400,
0,0,0,0,,,,,0,0,0,0,0,0,0,0,,,,,452.8386813000543,,,,,,451.339417399955,452.8222879000241,,,,,,0,inactive,46.0,469.8223887999775,473.12374559999444,28.000000000000185,3.281,,427.29205629997887,427.30510160000995,451.3390903000254,452.82255679997616,457.8222444000421,457.82224999996834,457.8387753999559,469.82238140003756,,,,,,,,,,,,,,,,,,,,,,,,,,,,,,sub-055,46,44.8,46.95,COM3,2025-06-03_10h22.16.235,2024_RDpaindiscrimination_maintask,2023.2.3,59.99869204649291,2025-06-03 10h22.35.884664 -0400,
0,0,0,0,,,,,0,0,0,0,1,0,1,0,,,,,473.13898609997705,,,,,,,,,,,,,1,active,46.0,490.12284239998553,492.49224970000796,22.499999999999993,2.35,,,,,473.124491399969,478.1225037999684,478.1225092000095,478.13903269998264,490.1228350000456,490.1559223999502,,,,,,,,,,,,,,,,,,,,,,,,,,,,,sub-055,46,44.8,46.95,COM3,2025-06-03_10h22.16.235,2024_RDpaindiscrimination_maintask,2023.2.3,59.99869204649291,2025-06-03 10h22.35.884664 -0400,
0,0,0,0,,,,,0,0,0,0,,,,,0,0,0,0,494.58923479996156,,,,,,,,,,,,,2,active,,,,,,,,,,,,,,,,492.4927815999836,494.5727794000413,494.57310170005076,499.572791100014,499.5727971000597,499.5892875000136,507.57272599998396,507.57272599998396,510.53943030000664,510.57276670006104,510.57276670006104,510.5562452999875,4.72,4.08,472,408,8,1.2,0.75,pic-present,1,n,0.9346185999456793,None,,,,,sub-055,46,44.8,46.95,COM3,2025-06-03_10h22.16.235,2024_RDpaindiscrimination_maintask,2023.2.3,59.99869204649291,2025-06-03 10h22.35.884664 -0400,
0,0,0,0,,,,,0,0,0,0,,,,,1,0,1,0,510.57276670006104,,,,,,,,,,,,,3,inactive,,,,,,,,,,,,,,,,,,510.5568610000191,515.5562925999984,515.5562987000449,515.5728270000545,523.5562899999786,523.5562899999786,526.522957899957,526.5562921999954,526.5562921999954,526.5398482000455,4.25,4.55,425,455,8,1.2,0.75,pic-absent,0,m,0.5184138999320567,None,,,,,sub-055,46,44.8,46.95,COM3,2025-06-03_10h22.16.235,2024_RDpaindiscrimination_maintask,2023.2.3,59.99869204649291,2025-06-03 10h22.35.884664 -0400,
0,0,0,0,,,,,0,0,0,0,,,,,2,0,2,0,526.5562921999954,,,,,,,,,,,,,0,active,,,,,,,,,,,,,,,,,,526.5403171000071,531.539853699971,531.5398598000174,531.556354100001,539.5398495000554,539.5398495000554,542.5065032000421,542.5398281000089,542.5398281000089,542.5233392000664,3.39,5.41,339,541,8,1.2,0.75,pic-present,0,m,0.43526100006420165,None,,,,,sub-055,46,44.8,46.95,COM3,2025-06-03_10h22.16.235,2024_RDpaindiscrimination_maintask,2023.2.3,59.99869204649291,2025-06-03 10h22.35.884664 -0400,
0,0,0,0,,,,,0,0,0,0,,,,,3,0,3,0,542.5398281000089,,,,,,,,,,,,,1,inactive,,,,,,,,,,,,,,,,,,542.5238109000493,547.5233949000249,547.523401399958,547.5399295999669,555.523370699957,555.523370699957,558.490060799988,558.523529099999,558.523529099999,558.5068890999537,3.72,5.08,372,508,8,1.2,0.75,pic-absent,0,m,0.507274099974893,None,,,,,sub-055,46,44.8,46.95,COM3,2025-06-03_10h22.16.235,2024_RDpaindiscrimination_maintask,2023.2.3,59.99869204649291,2025-06-03 10h22.35.884664 -0400,
0,0,0,0,,,,,1,0,1,0,0,0,0,0,,,,,559.9234083000338,,,,,,558.5073743000394,559.9069119000342,,,,,,2,active,46.0,576.9069583000382,579.3266305000288,13.0000000000001,2.4,,,,,559.9071828000015,564.9069928999525,564.9069997000042,564.9234771999763,576.9069505999796,,,,,,,,,,,,,,,,,,,,,,,,,,,,,,sub-055,46,44.8,46.95,COM3,2025-06-03_10h22.16.235,2024_RDpaindiscrimination_maintask,2023.2.3,59.99869204649291,2025-06-03 10h22.35.884664 -0400,
0,0,0,0,,,,,1,0,1,0,1,0,1,0,,,,,579.340315700043,,,,,,,,,,,,,3,inactive,46.0,596.3242681999691,599.3755858000368,17.000000000000103,3.032,,,,,579.3274061999982,584.3238689999562,584.323874499998,584.3403588000219,596.324261300033,596.357254600036,,,,,,,,,,,,,,,,,,,,,,,,,,,,,sub-055,46,44.8,46.95,COM3,2025-06-03_10h22.16.235,2024_RDpaindiscrimination_maintask,2023.2.3,59.99869204649291,2025-06-03 10h22.35.884664 -0400,
0,0,0,0,,,,,1,0,1,0,,,,,0,0,0,0,602.2073199000442,,,,,,,,,,,,,0,inactive,,,,,,,,,,,,,,,,599.3761392000597,602.1908374000341,602.1911299000494,607.1908358000219,607.1908415000653,607.207336600055,615.1908187000081,615.1908187000081,618.1575372000225,618.190811599954,618.190811599954,618.1742981000571,4.11,4.69,411,469,8,1.2,0.75,pic-absent,0,m,0.3684174999361858,None,,,,,sub-055,46,44.8,46.95,COM3,2025-06-03_10h22.16.235,2024_RDpaindiscrimination_maintask,2023.2.3,59.99869204649291,2025-06-03 10h22.35.884664 -0400,
0,0,0,0,,,,,1,0,1,0,,,,,1,0,1,0,618.190811599954,,,,,,,,,,,,,1,active,,,,,,,,,,,,,,,,,,618.1748063999694,623.1743164999643,623.1743229000131,623.1908283999655,631.1743149999529,631.1743149999529,634.1410112000303,634.1743502999889,634.1743502999889,634.1579087000573,3.43,5.37,343,537,8,1.2,0.75,pic-present,0,m,0.5009362000273541,None,,,,,sub-055,46,44.8,46.95,COM3,2025-06-03_10h22.16.235,2024_RDpaindiscrimination_maintask,2023.2.3,59.99869204649291,2025-06-03 10h22.35.884664 -0400,
0,0,0,0,,,,,1,0,1,0,,,,,2,0,2,0,634.1743502999889,,,,,,,,,,,,,2,inactive,,,,,,,,,,,,,,,,,,634.1583960000426,639.157876900048,639.157882599975,639.1744147000136,647.15783869999,647.15783869999,650.1246014999924,650.1579309999943,650.1579309999943,650.1414446999552,4.47,4.33,447,433,8,1.2,0.75,pic-absent,0,m,0.5328592000296339,None,,,,,sub-055,46,44.8,46.95,COM3,2025-06-03_10h22.16.235,2024_RDpaindiscrimination_maintask,2023.2.3,59.99869204649291,2025-06-03 10h22.35.884664 -0400,
0,0,0,0,,,,,1,0,1,0,,,,,3,0,3,0,650.1579309999943,,,,,,,,,,,,,3,inactive,,,,,,,,,,,,,,,,,,650.1418967000209,655.1414302999619,655.1414363000076,655.1580002000555,663.1413353000535,663.1413353000535,666.1081972999964,666.1415061999578,666.1415061999578,666.1250347000314,3.7,5.1,370,509,8,1.2,0.75,pic-present,1,n,0.5773371000541374,None,,,,,sub-055,46,44.8,46.95,COM3,2025-06-03_10h22.16.235,2024_RDpaindiscrimination_maintask,2023.2.3,59.99869204649291,2025-06-03 10h22.35.884664 -0400,
0,0,0,0,,,,,2,0,2,0,0,0,0,0,,,,,668.158133000019,,,,,,666.1255512000062,668.1416535000317,,,,,,0,inactive,46.0,685.1417478000512,687.6438399000326,18.500000000000007,2.482,,,,,668.1419358999701,673.1416011999827,673.1416067000246,673.1581599999918,685.1417398999911,,,,,,,,,,,,,,,,,,,,,,,,,,,,,,sub-055,46,44.8,46.95,COM3,2025-06-03_10h22.16.235,2024_RDpaindiscrimination_maintask,2023.2.3,59.99869204649291,2025-06-03 10h22.35.884664 -0400,
0,0,0,0,,,,,2,0,2,0,1,0,1,0,,,,,687.6583584999898,,,,,,,,,,,,,1,active,46.0,704.6421892000362,706.1116880000336,11.499999999999993,1.45,,,,,687.6445812999737,692.641854400048,692.6418597999727,692.6583862999687,704.6421818999806,704.6752024999587,,,,,,,,,,,,,,,,,,,,,,,,,,,,,sub-055,46,44.8,46.95,COM3,2025-06-03_10h22.16.235,2024_RDpaindiscrimination_maintask,2023.2.3,59.99869204649291,2025-06-03 10h22.35.884664 -0400,
0,0,0,0,,,,,2,0,2,0,,,,,0,0,0,0,707.5252377999714,,,,,,,,,,,,,2,active,,,,,,,,,,,,,,,,706.1121904000174,707.5087912000017,707.5091133000096,712.5087212000508,712.5087273999816,712.525267799967,720.508743399987,720.508743399987,723.475436000037,723.5087934000185,723.5087934000185,723.4922898999648,4.23,4.57,423,457,8,1.2,0.75,pic-absent,0,m,0.4578895999584347,None,,,,,sub-055,46,44.8,46.95,COM3,2025-06-03_10h22.16.235,2024_RDpaindiscrimination_maintask,2023.2.3,59.99869204649291,2025-06-03 10h22.35.884664 -0400,
0,0,0,0,,,,,2,0,2,0,,,,,1,0,1,0,723.5087934000185,,,,,,,,,,,,,3,inactive,,,,,,,,,,,,,,,,,,723.4928367000539,728.4923864000011,728.4923930000514,728.5088366999989,736.4923853999935,736.4923853999935,739.4590453000274,739.4923911000369,739.4923911000369,739.4758585999953,3.27,5.53,327,553,8,1.2,0.75,pic-present,1,n,0.4740213999757543,None,,,,,sub-055,46,44.8,46.95,COM3,2025-06-03_10h22.16.235,2024_RDpaindiscrimination_maintask,2023.2.3,59.99869204649291,2025-06-03 10h22.35.884664 -0400,
0,0,0,0,,,,,2,0,2,0,,,,,2,0,2,0,739.4923911000369,,,,,,,,,,,,,0,active,,,,,,,,,,,,,,,,,,739.476337500033,744.4758557999739,744.4758622000227,744.4923750000307,752.4758371000644,752.4758371000644,755.4425958000356,755.4759059000062,755.4759059000062,755.4593685000436,4.73,4.07,473,407,8,1.2,0.75,pic-absent,0,m,0.41473620000761,None,,,,,sub-055,46,44.8,46.95,COM3,2025-06-03_10h22.16.235,2024_RDpaindiscrimination_maintask,2023.2.3,59.99869204649291,2025-06-03 10h22.35.884664 -0400,
0,0,0,0,,,,,2,0,2,0,,,,,3,0,3,0,755.4759059000062,,,,,,,,,,,,,1,active,,,,,,,,,,,,,,,,,,755.4598630999681,760.459460800048,760.4594681999879,760.4759284000611,768.4594632999506,768.4594632999506,771.4261227999814,771.4594790999545,771.4594790999545,771.4429456000216,3.37,5.43,337,543,8,1.2,0.75,pic-absent,0,m,0.42298030003439635,None,,,,,sub-055,46,44.8,46.95,COM3,2025-06-03_10h22.16.235,2024_RDpaindiscrimination_maintask,2023.2.3,59.99869204649291,2025-06-03 10h22.35.884664 -0400,
0,0,0,0,,,,,3,0,3,0,0,0,0,0,,,,,774.1428683999693,,,,,,771.4434591999743,774.126414700062,,,,,,2,active,46.0,791.1266800999874,794.5275895999512,8.500000000000203,3.38,,,,,774.1267429,779.1264223000035,779.1264281000476,779.1429241000442,791.1266723000444,791.1596636000322,,,,,,,,,,,,,,,,,,,,,,,,,,,,,sub-055,46,44.8,46.95,COM3,2025-06-03_10h22.16.235,2024_RDpaindiscrimination_maintask,2023.2.3,59.99869204649291,2025-06-03 10h22.35.884664 -0400,
0,0,0,0,,,,,3,0,3,0,1,0,1,0,,,,,794.5430515999906,,,,,,,,,,,,,3,inactive,46.0,811.5270107999677,813.2957244999707,13.000000000000028,1.748,,,,,794.5278165000491,799.5266191000119,799.526624500053,799.5431876999792,811.5270038000308,811.5599737999728,,,,,,,,,,,,,,,,,,,,,,,,,,,,,sub-055,46,44.8,46.95,COM3,2025-06-03_10h22.16.235,2024_RDpaindiscrimination_maintask,2023.2.3,59.99869204649291,2025-06-03 10h22.35.884664 -0400,
0,0,0,0,,,,,3,0,3,0,,,,,0,0,0,0,815.0599586999742,,,,,,,,,,,,,0,inactive,,,,,,,,,,,,,,,,813.2962466999888,815.0435914000263,815.0439046999672,820.0435850999784,820.0435913000256,820.0601165000116,828.0435526999645,828.0435526999645,831.0102525999537,831.043588200002,831.043588200002,831.0270776000107,3.86,4.94,386,494,8,1.2,0.75,pic-present,1,n,0.6191758000059053,None,,,,,sub-055,46,44.8,46.95,COM3,2025-06-03_10h22.16.235,2024_RDpaindiscrimination_maintask,2023.2.3,59.99869204649291,2025-06-03 10h22.35.884664 -0400,
0,0,0,0,,,,,3,0,3,0,,,,,1,0,1,0,831.043588200002,,,,,,,,,,,,,1,active,,,,,,,,,,,,,,,,,,831.0276317000389,836.0271292000543,836.0271360999905,836.0436381000327,844.0270791000221,844.0270791000221,846.9937451999867,847.0270993000595,847.0270993000595,847.0106056999648,3.67,5.13,367,513,8,1.2,0.75,pic-absent,1,n,0.549167999997735,None,,,,,sub-055,46,44.8,46.95,COM3,2025-06-03_10h22.16.235,2024_RDpaindiscrimination_maintask,2023.2.3,59.99869204649291,2025-06-03 10h22.35.884664 -0400,
0,0,0,0,,,,,3,0,3,0,,,,,2,0,2,0,847.0270993000595,,,,,,,,,,,,,2,inactive,,,,,,,,,,,,,,,,,,847.0110481999582,852.0106608000351,852.0106674999697,852.0271864000242,860.0106198999565,860.0106198999565,862.9773219999624,863.010655399994,863.010655399994,862.994131000014,3.7,5.1,370,509,8,1.2,0.75,pic-present,1,n,0.5921865999698639,None,,,,,sub-055,46,44.8,46.95,COM3,2025-06-03_10h22.16.235,2024_RDpaindiscrimination_maintask,2023.2.3,59.99869204649291,2025-06-03 10h22.35.884664 -0400,
0,0,0,0,,,,,3,0,3,0,,,,,3,0,3,0,863.010655399994,,,,,,,,,,,,,3,active,,,,,,,,,,,,,,,,,,862.9945976999588,867.9941848999588,867.9941917000106,868.0107279999647,875.994153699954,875.994153699954,878.9608575999737,878.9940677999984,878.9940677999984,878.9776749999728,3.49,5.31,349,531,8,1.2,0.75,pic-present,1,n,0.40097389998845756,None,,,,,sub-055,46,44.8,46.95,COM3,2025-06-03_10h22.16.235,2024_RDpaindiscrimination_maintask,2023.2.3,59.99869204649291,2025-06-03 10h22.35.884664 -0400,
1,0,1,0,0,0,0,0,,,,,,,,,,,,,912.1611604000209,,,,901.0113880999852,902.7779118999606,902.7779188000131,912.1447492999723,912.1450546999695,917.1447047999827,917.1447110000299,917.1612167999847,929.1448539999546,0,inactive,46.0,929.1450590000022,932.3307374999858,25.50000000000006,3.088,,,,,,,,,,,,,,,,,,,,,,,,,,,,,,,,,,,878.9781015999615,901.0112615999533,,,sub-055,46,44.8,46.95,COM3,2025-06-03_10h22.16.235,2024_RDpaindiscrimination_maintask,2023.2.3,59.99869204649291,2025-06-03 10h22.35.884664 -0400,
1,0,1,0,1,0,1,0,,,,,,,,,,,,,932.3447889999952,,,,,,,,932.3316402999917,937.3283176999539,937.3283231999958,937.344806500012,949.3287437000545,1,active,44.8,949.3288838999579,952.9796084000263,5.0000000000002,3.631,949.3617515000515,,,,,,,,,,,,,,,,,,,,,,,,,,,,,,,,,,,,,,sub-055,46,44.8,46.95,COM3,2025-06-03_10h22.16.235,2024_RDpaindiscrimination_maintask,2023.2.3,59.99869204649291,2025-06-03 10h22.35.884664 -0400,
1,0,1,0,2,0,2,0,,,,,,,,,,,,,952.9950478000101,,,,,,,,952.9804030000232,957.9785928999772,957.9785985000199,957.9951018999564,969.9789209000301,2,active,44.8,969.9790617000544,974.0305773,8.500000000000167,4.031,970.0119230999844,,,,,,,,,,,,,,,,,,,,,,,,,,,,,,,,,,,,,,sub-055,46,44.8,46.95,COM3,2025-06-03_10h22.16.235,2024_RDpaindiscrimination_maintask,2023.2.3,59.99869204649291,2025-06-03 10h22.35.884664 -0400,
1,0,1,0,3,0,3,0,,,,,,,,,,,,,974.0453048000345,,,,,,,,974.031389700016,979.0288395000389,979.0288454999682,979.0453692000592,991.0292377000442,3,inactive,46.0,991.0293764000526,992.6302092999686,25.000000000000053,1.581,991.0622670999728,,,,,,,,,,,,,,,,,,,,,,,,,,,,,,,,,,,,,,sub-055,46,44.8,46.95,COM3,2025-06-03_10h22.16.235,2024_RDpaindiscrimination_maintask,2023.2.3,59.99869204649291,2025-06-03 10h22.35.884664 -0400,
1,0,1,0,4,0,4,0,,,,,,,,,,,,,992.645544799976,,,,,,,,992.6310085000005,997.629081799998,997.6290874000406,997.6456038999604,1009.6295102000004,0,active,44.8,1009.6296560000628,1013.2480886999983,3.5000000000002003,3.599,1009.6625125999562,,,,,,,,,,,,,,,,,,,,,,,,,,,,,,,,,,,,,,sub-055,46,44.8,46.95,COM3,2025-06-03_10h22.16.235,2024_RDpaindiscrimination_maintask,2023.2.3,59.99869204649291,2025-06-03 10h22.35.884664 -0400,
1,0,1,0,5,0,5,0,,,,,,,,,,,,,1013.2626101999776,,,,,,,,1013.2488432000391,1018.2460031999508,1018.2460087999934,1018.2625372000039,1030.2462865000125,1,active,44.8,1030.2464255000232,1033.1149362999713,5.000000000000093,2.848,1030.2793151000515,,,,,,,,,,,,,,,,,,,,,,,,,,,,,,,,,,,,,,sub-055,46,44.8,46.95,COM3,2025-06-03_10h22.16.235,2024_RDpaindiscrimination_maintask,2023.2.3,59.99869204649291,2025-06-03 10h22.35.884664 -0400,
1,0,1,0,6,0,6,0,,,,,,,,,,,,,1033.1293518999591,,,,,,,,1033.1157086000312,1038.1129040999804,1038.1129098000238,1038.12941579998,1050.1131650999887,2,inactive,46.0,1050.1133120000595,1052.8149136999855,16.000000000000068,2.681,1050.1461959000444,,,,,,,,,,,,,,,,,,,,,,,,,,,,,,,,,,,,,,sub-055,46,44.8,46.95,COM3,2025-06-03_10h22.16.235,2024_RDpaindiscrimination_maintask,2023.2.3,59.99869204649291,2025-06-03 10h22.35.884664 -0400,
1,0,1,0,7,0,7,0,,,,,,,,,,,,,1052.8295979000395,,,,,,,,1052.8156946999952,1057.8131261999952,1057.8131316000363,1057.8296336999629,1069.8135163000552,3,active,44.8,1069.8136644000188,1073.299064700026,3.0000000000002003,3.465,1069.846485499991,,,,,,,,,,,,,,,,,,,,,,,,,,,,,,,,,,,,,,sub-055,46,44.8,46.95,COM3,2025-06-03_10h22.16.235,2024_RDpaindiscrimination_maintask,2023.2.3,59.99869204649291,2025-06-03 10h22.35.884664 -0400,
1,0,1,0,8,0,8,0,,,,,,,,,,,,,1073.313199999975,,,,,,,,1073.2998268000083,1078.2967137000524,1078.2967196999816,1078.3132572000613,1090.2971045000013,0,active,44.8,1090.2972411999945,1092.4159500000533,5.999999999999988,2.098,1090.3300671000034,,,,,,,,,,,,,,,,,,,,,,,,,,,,,,,,,,,,,,sub-055,46,44.8,46.95,COM3,2025-06-03_10h22.16.235,2024_RDpaindiscrimination_maintask,2023.2.3,59.99869204649291,2025-06-03 10h22.35.884664 -0400,
1,0,1,0,9,0,9,0,,,,,,,,,,,,,1092.430084599997,,,,,,,,1092.4167344999732,1097.4135945000453,1097.4135993999662,1097.4301321000094,1109.4140330000082,1,inactive,46.0,1109.4141729000257,1113.8650043000234,12.500000000000073,4.431,1109.4470218999777,,,,,,,,,,,,,,,,,,,,,,,,,,,,,,,,,,,,,,sub-055,46,44.8,46.95,COM3,2025-06-03_10h22.16.235,2024_RDpaindiscrimination_maintask,2023.2.3,59.99869204649291,2025-06-03 10h22.35.884664 -0400,
1,0,1,0,10,0,10,0,,,,,,,,,,,,,1113.8803732000524,,,,,,,,1113.8657927999739,1118.8639378000516,1118.863943799981,1118.8804721999913,1130.8642481999705,2,inactive,46.0,1130.8643875999842,1133.182165700011,16.000000000000103,2.298,1130.8972848999547,,,,,,,,,,,,,,,,,,,,,,,,,,,,,,,,,,,,,,sub-055,46,44.8,46.95,COM3,2025-06-03_10h22.16.235,2024_RDpaindiscrimination_maintask,2023.2.3,59.99869204649291,2025-06-03 10h22.35.884664 -0400,
1,0,1,0,11,0,11,0,,,,,,,,,,,,,1133.1973372000502,,,,,,,,1133.1829287,1138.1808932999847,1138.1808988000266,1138.1973819000414,1150.181217800011,3,active,44.8,1150.181358700036,1153.2496263000648,4.500000000000129,3.048,1150.2142015000572,,,,,,,,,,,,,,,,,,,,,,,,,,,,,,,,,,,,,,sub-055,46,44.8,46.95,COM3,2025-06-03_10h22.16.235,2024_RDpaindiscrimination_maintask,2023.2.3,59.99869204649291,2025-06-03 10h22.35.884664 -0400,
1,0,1,0,12,0,12,0,,,,,,,,,,,,,1153.2642912999727,,,,,,,,1153.2504133000039,1158.2477720000315,1158.2477776999585,1158.264305699966,1170.2482120000059,0,inactive,46.0,1170.2483596999664,1173.1825348000275,10.500000000000098,2.914,1170.2811175000388,,,,,,,,,,,,,,,,,,,,,,,,,,,,,,,,,,,,,,sub-055,46,44.8,46.95,COM3,2025-06-03_10h22.16.235,2024_RDpaindiscrimination_maintask,2023.2.3,59.99869204649291,2025-06-03 10h22.35.884664 -0400,
1,0,1,0,13,0,13,0,,,,,,,,,,,,,1173.1978658000007,,,,,,,,1173.1833043999504,1178.181411699974,1178.1814172000159,1178.1978897000663,1190.1816746999975,1,inactive,46.0,1190.1818136000074,1191.5843259999529,15.000000000000004,1.381,1190.214724099962,,,,,,,,,,,,,,,,,,,,,,,,,,,,,,,,,,,,,,sub-055,46,44.8,46.95,COM3,2025-06-03_10h22.16.235,2024_RDpaindiscrimination_maintask,2023.2.3,59.99869204649291,2025-06-03 10h22.35.884664 -0400,
1,0,1,0,14,0,14,0,,,,,,,,,,,,,1191.5980634000152,,,,,,,,1191.5851311000297,1196.5816093999892,1196.5816146000288,1196.5981372999959,1208.5819062000373,2,active,44.8,1208.5820446000434,1212.0665249000303,9.000000000000203,3.376,1208.6983477000613,,,,,,,,,,,,,,,,,,,,,,,,,,,,,,,,,,,,,,sub-055,46,44.8,46.95,COM3,2025-06-03_10h22.16.235,2024_RDpaindiscrimination_maintask,2023.2.3,59.99869204649291,2025-06-03 10h22.35.884664 -0400,
1,0,1,0,15,0,15,0,,,,,,,,,,,,,1212.081652999972,,,,,,,,1212.0673713999568,1217.0652122000465,1217.0652179999743,1217.0817157999845,1229.0655519999564,3,inactive,46.0,1229.0656907999655,1230.8332383000525,27.49999999999997,1.748,1229.0985267000506,,,,,,,,,,,,,,,,,,,,,,,,,,,,,,,,,,,,,,sub-055,46,44.8,46.95,COM3,2025-06-03_10h22.16.235,2024_RDpaindiscrimination_maintask,2023.2.3,59.99869204649291,2025-06-03 10h22.35.884664 -0400,
1,0,1,0,,,,,0,0,0,0,0,0,0,0,,,,,1235.1486251000315,,,,,,1234.665840200032,1235.1321696999948,,,,,,0,active,46.0,1252.1324545999523,1254.3502940000035,17.500000000000032,2.198,,1230.8337999000214,1230.8485975000076,1234.6655231000623,1235.1324385000626,1240.1321139000356,1240.1321200999664,1240.1486439000582,1252.13244690001,1252.1654508999782,,,,,,,,,,,,,,,,,,,,,,,,,,,,,sub-055,46,44.8,46.95,COM3,2025-06-03_10h22.16.235,2024_RDpaindiscrimination_maintask,2023.2.3,59.99869204649291,2025-06-03 10h22.35.884664 -0400,
1,0,1,0,,,,,0,0,0,0,1,0,1,0,,,,,1254.365482800058,,,,,,,,,,,,,1,inactive,46.0,1271.349333500024,1275.1009208000032,19.500000000000078,3.731,,,,,1254.351091300021,1259.349034999963,1259.349040800007,1259.3655482999748,1271.3493255999638,1271.3823334999615,,,,,,,,,,,,,,,,,,,,,,,,,,,,,sub-055,46,44.8,46.95,COM3,2025-06-03_10h22.16.235,2024_RDpaindiscrimination_maintask,2023.2.3,59.99869204649291,2025-06-03 10h22.35.884664 -0400,
1,0,1,0,,,,,0,0,0,0,,,,,0,0,0,0,1277.0824366000015,,,,,,,,,,,,,2,active,,,,,,,,,,,,,,,,1275.1014527999796,1277.0660523000406,1277.066369600012,1282.0660197000252,1282.0660256999545,1282.0825558999786,1290.065935599967,1290.065935599967,1293.032654199982,1293.0660098999506,1293.0660098999506,1293.0494761000155,3.93,4.87,393,487,8,1.2,0.75,pic-absent,0,m,0.49695039994549006,None,,,,,sub-055,46,44.8,46.95,COM3,2025-06-03_10h22.16.235,2024_RDpaindiscrimination_maintask,2023.2.3,59.99869204649291,2025-06-03 10h22.35.884664 -0400,
1,0,1,0,,,,,0,0,0,0,,,,,1,0,1,0,1293.0660098999506,,,,,,,,,,,,,3,inactive,,,,,,,,,,,,,,,,,,1293.050039499998,1298.0495506000007,1298.0495564000448,1298.0660390000558,1306.0495272000553,1306.0495272000553,1309.0162988000084,1309.0496405999875,1309.0496405999875,1309.0331340000266,3.78,5.02,378,501,8,1.2,0.75,pic-present,1,n,0.45441080001182854,None,,,,,sub-055,46,44.8,46.95,COM3,2025-06-03_10h22.16.235,2024_RDpaindiscrimination_maintask,2023.2.3,59.99869204649291,2025-06-03 10h22.35.884664 -0400,
1,0,1,0,,,,,0,0,0,0,,,,,2,0,2,0,1309.0496405999875,,,,,,,,,,,,,0,inactive,,,,,,,,,,,,,,,,,,1309.033635300002,1314.0331694000633,1314.0331762999995,1314.049693500041,1322.033131700009,1322.033131700009,1324.999833400012,1325.0331741999835,1325.0331741999835,1325.0166604999686,4.75,4.05,475,405,8,1.2,0.75,pic-absent,0,m,0.41379449993837625,None,,,,,sub-055,46,44.8,46.95,COM3,2025-06-03_10h22.16.235,2024_RDpaindiscrimination_maintask,2023.2.3,59.99869204649291,2025-06-03 10h22.35.884664 -0400,
1,0,1,0,,,,,0,0,0,0,,,,,3,0,3,0,1325.0331741999835,,,,,,,,,,,,,1,active,,,,,,,,,,,,,,,,,,1325.0171448000474,1330.0167246999918,1330.0167333000572,1330.0332251000218,1338.016667000018,1338.016667000018,1340.983371600043,1341.0166940999916,1341.0166940999916,1341.0002068000613,3.57,5.23,357,523,8,1.2,0.75,pic-absent,0,m,0.40249889995902777,None,,,,,sub-055,46,44.8,46.95,COM3,2025-06-03_10h22.16.235,2024_RDpaindiscrimination_maintask,2023.2.3,59.99869204649291,2025-06-03 10h22.35.884664 -0400,
1,0,1,0,,,,,1,0,1,0,0,0,0,0,,,,,1341.6000566000585,,,,,,1341.000716999988,1341.5836374000646,,,,,,2,inactive,46.0,1358.5838723999914,1361.5350494000595,15.000000000000139,2.931,,,,,1341.5839382000268,1346.5835941999685,1346.5836009000195,1346.600015199976,1358.5838647000492,1358.6169269999955,,,,,,,,,,,,,,,,,,,,,,,,,,,,,sub-055,46,44.8,46.95,COM3,2025-06-03_10h22.16.235,2024_RDpaindiscrimination_maintask,2023.2.3,59.99869204649291,2025-06-03 10h22.35.884664 -0400,
1,0,1,0,,,,,1,0,1,0,1,0,1,0,,,,,1361.5503089999547,,,,,,,,,,,,,3,active,46.0,1378.5340699000517,1381.3856435000198,7.5000000000001315,2.831,,,,,1361.5358645999804,1366.5338554000482,1366.5338612999767,1366.550322300056,1378.5340624999953,1378.567085799994,,,,,,,,,,,,,,,,,,,,,,,,,,,,,sub-055,46,44.8,46.95,COM3,2025-06-03_10h22.16.235,2024_RDpaindiscrimination_maintask,2023.2.3,59.99869204649291,2025-06-03 10h22.35.884664 -0400,
1,0,1,0,,,,,1,0,1,0,,,,,0,0,0,0,1383.2839112000074,,,,,,,,,,,,,0,inactive,,,,,,,,,,,,,,,,1381.3861712999642,1383.267480700044,1383.2678008000366,1388.2674397999654,1388.2674457000103,1388.2839722000062,1396.2673929999582,1396.2673929999582,1399.2341296999948,1399.2674600000028,1399.2674600000028,1399.250929199974,4.52,4.28,451,428,8,1.2,0.75,pic-present,1,n,0.4010124000487849,None,,,,,sub-055,46,44.8,46.95,COM3,2025-06-03_10h22.16.235,2024_RDpaindiscrimination_maintask,2023.2.3,59.99869204649291,2025-06-03 10h22.35.884664 -0400,
1,0,1,0,,,,,1,0,1,0,,,,,1,0,1,0,1399.2674600000028,,,,,,,,,,,,,1,active,,,,,,,,,,,,,,,,,,1399.251485100016,1404.250977699994,1404.2509844000451,1404.2674663000507,1412.2508249999955,1412.2508249999955,1415.2175256999908,1415.2508646000642,1415.2508646000642,1415.2343449000036,4.54,4.26,454,426,8,1.2,0.75,pic-absent,0,m,0.6363645999226719,None,,,,,sub-055,46,44.8,46.95,COM3,2025-06-03_10h22.16.235,2024_RDpaindiscrimination_maintask,2023.2.3,59.99869204649291,2025-06-03 10h22.35.884664 -0400,
1,0,1,0,,,,,1,0,1,0,,,,,2,0,2,0,1415.2508646000642,,,,,,,,,,,,,2,active,,,,,,,,,,,,,,,,,,1415.2348305999767,1420.2344274000498,1420.2344332999783,1420.2510085999966,1428.2344809999922,1428.2344809999922,1431.201181499986,1431.2345133000053,1431.2345133000053,1431.2179979999783,3.76,5.04,376,504,8,1.2,0.75,pic-present,1,n,0.35739949997514486,None,,,,,sub-055,46,44.8,46.95,COM3,2025-06-03_10h22.16.235,2024_RDpaindiscrimination_maintask,2023.2.3,59.99869204649291,2025-06-03 10h22.35.884664 -0400,
1,0,1,0,,,,,1,0,1,0,,,,,3,0,3,0,1431.2345133000053,,,,,,,,,,,,,3,inactive,,,,,,,,,,,,,,,,,,1431.2184719999786,1436.2179681999842,1436.2179740000283,1436.2344638999784,1444.218017200008,1444.218017200008,1447.184723100043,1447.2180679000448,1447.2180679000448,1447.2015458999667,4.16,4.64,416,463,8,1.2,0.75,pic-absent,0,m,0.3380289999768138,None,,,,,sub-055,46,44.8,46.95,COM3,2025-06-03_10h22.16.235,2024_RDpaindiscrimination_maintask,2023.2.3,59.99869204649291,2025-06-03 10h22.35.884664 -0400,
1,0,1,0,,,,,2,0,2,0,0,0,0,0,,,,,1448.984758400009,,,,,,1447.2020072999876,1448.9683721000329,,,,,,0,inactive,46.0,1465.9685722000431,1468.9865006000036,15.500000000000103,2.998,,,,,1448.9686491000466,1453.9681670999853,1453.9681736000348,1453.9846955999965,1465.9685636999784,1466.0016264000442,,,,,,,,,,,,,,,,,,,,,,,,,,,,,sub-055,46,44.8,46.95,COM3,2025-06-03_10h22.16.235,2024_RDpaindiscrimination_maintask,2023.2.3,59.99869204649291,2025-06-03 10h22.35.884664 -0400,
1,0,1,0,,,,,2,0,2,0,1,0,1,0,,,,,1469.0016710000345,,,,,,,,,,,,,1,active,46.0,1485.9854691000655,1488.5870645999676,11.500000000000135,2.581,,,,,1468.9872739999555,1473.9851160000544,1473.985121899983,1474.0016330999788,1485.9854616000084,1486.0184770000633,,,,,,,,,,,,,,,,,,,,,,,,,,,,,sub-055,46,44.8,46.95,COM3,2025-06-03_10h22.16.235,2024_RDpaindiscrimination_maintask,2023.2.3,59.99869204649291,2025-06-03 10h22.35.884664 -0400,
1,0,1,0,,,,,2,0,2,0,,,,,0,0,0,0,1490.3351910000201,,,,,,,,,,,,,2,active,,,,,,,,,,,,,,,,1488.5876127999509,1490.3187412000261,1490.31905489997,1495.3187355999835,1495.3187415000284,1495.335256600054,1503.318689399981,1503.318689399981,1506.2854059999809,1506.3187615000643,1506.3187615000643,1506.3022130000172,4.08,4.72,408,472,8,1.2,0.75,pic-present,1,n,0.4090716999489814,None,,,,,sub-055,46,44.8,46.95,COM3,2025-06-03_10h22.16.235,2024_RDpaindiscrimination_maintask,2023.2.3,59.99869204649291,2025-06-03 10h22.35.884664 -0400,
1,0,1,0,,,,,2,0,2,0,,,,,1,0,1,0,1506.3187615000643,,,,,,,,,,,,,3,inactive,,,,,,,,,,,,,,,,,,1506.3028341999743,1511.3022635000525,1511.3022703999886,1511.3187901000492,1519.3023046000162,1519.3023046000162,1522.2689325000392,1522.30232909997,1522.30232909997,1522.2857527000597,4.2,4.6,420,459,8,1.2,0.75,pic-absent,0,m,0.4209116999991238,None,,,,,sub-055,46,44.8,46.95,COM3,2025-06-03_10h22.16.235,2024_RDpaindiscrimination_maintask,2023.2.3,59.99869204649291,2025-06-03 10h22.35.884664 -0400,
1,0,1,0,,,,,2,0,2,0,,,,,2,0,2,0,1522.30232909997,,,,,,,,,,,,,0,inactive,,,,,,,,,,,,,,,,,,1522.28621749999,1527.2858453000663,1527.2858516999986,1527.3023256000597,1535.285853600013,1535.285853600013,1538.2524335000198,1538.2857673000544,1538.2857673000544,1538.2692601999734,4.67,4.13,467,413,8,1.2,0.75,pic-present,1,n,0.39096009999047965,None,,,,,sub-055,46,44.8,46.95,COM3,2025-06-03_10h22.16.235,2024_RDpaindiscrimination_maintask,2023.2.3,59.99869204649291,2025-06-03 10h22.35.884664 -0400,
1,0,1,0,,,,,2,0,2,0,,,,,3,0,3,0,1538.2857673000544,,,,,,,,,,,,,1,active,,,,,,,,,,,,,,,,,,1538.2697018999606,1543.2694033000153,1543.2694116999628,1543.2858335999772,1551.2692667000229,1551.2692667000229,1554.2359757999657,1554.2693070999812,1554.2693070999812,1554.2527873000363,3.9,4.9,390,490,8,1.2,0.75,pic-present,1,n,0.4031154999975115,None,,,,,sub-055,46,44.8,46.95,COM3,2025-06-03_10h22.16.235,2024_RDpaindiscrimination_maintask,2023.2.3,59.99869204649291,2025-06-03 10h22.35.884664 -0400,
1,0,1,0,,,,,3,0,3,0,0,0,0,0,,,,,1555.9859873000532,,,,,,1554.253247900051,1555.9695997999515,,,,,,2,active,46.0,1572.9696934999665,1575.3539854000555,14.500000000000101,2.365,,,,,1555.969878199976,1560.9696555000264,1560.9696615999565,1560.986192899989,1572.9696860000258,,,,,,,,,,,,,,,,,,,,,,,,,,,,,,sub-055,46,44.8,46.95,COM3,2025-06-03_10h22.16.235,2024_RDpaindiscrimination_maintask,2023.2.3,59.99869204649291,2025-06-03 10h22.35.884664 -0400,
1,0,1,0,,,,,3,0,3,0,1,0,1,0,,,,,1575.369576200028,,,,,,,,,,,,,3,inactive,46.0,1592.3535740999505,1594.4393547000363,24.000000000000057,2.065,,,,,1575.3547212999547,1580.3531706000213,1580.3531760000624,1580.3696478999918,1592.3535671000136,1592.3865868999856,,,,,,,,,,,,,,,,,,,,,,,,,,,,,sub-055,46,44.8,46.95,COM3,2025-06-03_10h22.16.235,2024_RDpaindiscrimination_maintask,2023.2.3,59.99869204649291,2025-06-03 10h22.35.884664 -0400,
1,0,1,0,,,,,3,0,3,0,,,,,0,0,0,0,1596.1031817999901,,,,,,,,,,,,,0,inactive,,,,,,,,,,,,,,,,1594.4398625000613,1596.0867578999605,1596.0870761000551,1601.086760199978,1601.0867663000245,1601.1032432999928,1609.0866751000285,1609.0866751000285,1612.053379900055,1612.0867338000098,1612.0867338000098,1612.0702140000649,3.55,5.25,355,525,8,1.2,0.75,pic-absent,0,m,0.3131320000393316,None,,,,,sub-055,46,44.8,46.95,COM3,2025-06-03_10h22.16.235,2024_RDpaindiscrimination_maintask,2023.2.3,59.99869204649291,2025-06-03 10h22.35.884664 -0400,
1,0,1,0,,,,,3,0,3,0,,,,,1,0,1,0,1612.0867338000098,,,,,,,,,,,,,1,active,,,,,,,,,,,,,,,,,,1612.0707097999984,1617.0703509000596,1617.0703579999972,1617.0868248000043,1625.070226800046,1625.070226800046,1628.0369192999788,1628.0702685000142,1628.0702685000142,1628.0537423000205,4.4,4.4,440,440,8,1.2,0.75,pic-present,1,n,0.5295594000490382,None,,,,,sub-055,46,44.8,46.95,COM3,2025-06-03_10h22.16.235,2024_RDpaindiscrimination_maintask,2023.2.3,59.99869204649291,2025-06-03 10h22.35.884664 -0400,
1,0,1,0,,,,,3,0,3,0,,,,,2,0,2,0,1628.0702685000142,,,,,,,,,,,,,2,active,,,,,,,,,,,,,,,,,,1628.0541851000162,1633.0537814999698,1633.053787700017,1633.0703309000237,1641.053752799984,1641.053752799984,1644.020458700019,1644.053782699979,1644.053782699979,1644.0373739000643,4.17,4.63,417,463,8,1.2,0.75,pic-absent,0,m,0.7096072999993339,None,,,,,sub-055,46,44.8,46.95,COM3,2025-06-03_10h22.16.235,2024_RDpaindiscrimination_maintask,2023.2.3,59.99869204649291,2025-06-03 10h22.35.884664 -0400,
1,0,1,0,,,,,3,0,3,0,,,,,3,0,3,0,1644.053782699979,,,,,,,,,,,,,3,inactive,,,,,,,,,,,,,,,,,,1644.0378889000276,1649.0373201000039,1649.0373269000556,1649.0538577999687,1657.0372950000456,1657.0372950000456,1660.0039997999556,1660.0373394000344,1660.0373394000344,1660.0208798999665,3.96,4.84,396,484,8,1.2,0.75,pic-present,1,n,0.5260121000465006,None,,,,,sub-055,46,44.8,46.95,COM3,2025-06-03_10h22.16.235,2024_RDpaindiscrimination_maintask,2023.2.3,59.99869204649291,2025-06-03 10h22.35.884664 -0400,
,,,,,,,,,,,,,,,,,,,,,,,,,,,,,,,,,,,,,,,,,,,,,,,,,,,,,,,,,,,,,,,,,,,,,,,,,,1660.021353899967,1662.3876513000578,1662.3876722999848,1672.3876557999756,,,,,,,,,,,
